#time,accel_x,accel_y,accel_z
1285.400267,7031.956449,-5995.668130,1455.581446
1285.400597,7105.977043,-6291.750507,1149.143247
1285.400928,7105.977043,-6217.729913,995.924147
1285.401258,7105.977043,-6217.729913,1302.362347
1285.401588,6957.935855,-6513.812290,689.485948
1285.401918,6661.853478,-6735.874072,995.924147
1285.402248,7031.956449,-7105.977043,1072.533697
1285.402578,6735.874072,-6809.894666,995.924147
1285.402908,6809.894666,-6217.729913,842.705048
1285.403238,7031.956449,-6217.729913,1072.533697
1285.403569,7105.977043,-7031.956449,995.924147
1285.403899,7105.977043,-6587.832884,689.485948
1285.404229,6143.709319,-6587.832884,1378.971896
1285.404559,6661.853478,-6735.874072,995.924147
1285.404889,7105.977043,-6809.894666,995.924147
1285.405219,7254.018232,-6291.750507,1455.581446
1285.405549,7105.977043,-6587.832884,995.924147
1285.405879,7846.182985,-6365.771101,1455.581446
1285.406209,7179.997637,-6439.791695,612.876398
1285.406540,7105.977043,-6439.791695,995.924147
1285.406870,7179.997637,-6143.709319,1225.752797
1285.407200,7105.977043,-6365.771101,1915.238745
1285.407530,7105.977043,-6291.750507,1378.971896
1285.407860,7031.956449,-6143.709319,919.314598
1285.408190,6957.935855,-6365.771101,1072.533697
1285.408520,6883.915261,-6513.812290,1378.971896
1285.408850,7105.977043,-6661.853478,536.266849
1285.409181,6513.812290,-6661.853478,1149.143247
1285.409511,6217.729913,-6513.812290,612.876398
1285.409841,6587.832884,-6661.853478,1302.362347
1285.410171,6957.935855,-7105.977043,1225.752797
1285.410501,7031.956449,-6365.771101,1149.143247
1285.410831,6735.874072,-6883.915261,1225.752797
1285.411161,6957.935855,-6883.915261,0.000000
1285.411491,6513.812290,-6883.915261,842.705048
1285.411822,6735.874072,-6809.894666,919.314598
1285.412152,7105.977043,-7031.956449,919.314598
1285.412482,7105.977043,-6217.729913,919.314598
1285.412812,7105.977043,-6735.874072,1149.143247
1285.413142,7105.977043,-6365.771101,1608.800546
1285.413472,7105.977043,-6735.874072,1302.362347
1285.413802,6957.935855,-6587.832884,689.485948
1285.414132,7105.977043,-6439.791695,919.314598
1285.414463,7328.038826,-6217.729913,919.314598
1285.414793,7105.977043,-6587.832884,1455.581446
1285.415123,7105.977043,-6587.832884,766.095498
1285.415453,7105.977043,-6365.771101,612.876398
1285.415783,7179.997637,-6513.812290,1149.143247
1285.416113,6735.874072,-6439.791695,919.314598
1285.416443,6735.874072,-6365.771101,459.657299
1285.416773,6957.935855,-6587.832884,1149.143247
1285.417104,7031.956449,-6661.853478,1149.143247
1285.417434,6957.935855,-6661.853478,995.924147
1285.417764,7031.956449,-6513.812290,1225.752797
1285.418094,6809.894666,-6661.853478,1225.752797
1285.418424,6957.935855,-6883.915261,919.314598
1285.418754,6661.853478,-6883.915261,995.924147
1285.419084,6883.915261,-7031.956449,919.314598
1285.419414,7402.059420,-6661.853478,766.095498
1285.419745,6883.915261,-6291.750507,1302.362347
1285.420075,7105.977043,-6587.832884,689.485948
1285.420405,7328.038826,-6439.791695,1149.143247
1285.420735,7105.977043,-6513.812290,612.876398
1285.421065,7179.997637,-6217.729913,229.828649
1285.421395,7105.977043,-6365.771101,1072.533697
1285.421725,7328.038826,-6217.729913,1072.533697
1285.422055,7179.997637,-6587.832884,1225.752797
1285.422386,7179.997637,-5847.626942,1225.752797
1285.422716,7254.018232,-6513.812290,1149.143247
1285.423046,7105.977043,-6439.791695,1685.410096
1285.423376,7179.997637,-6365.771101,1302.362347
1285.423706,6661.853478,-6809.894666,995.924147
1285.424036,6735.874072,-6587.832884,1149.143247
1285.424366,6439.791695,-6883.915261,842.705048
1285.424696,6735.874072,-7105.977043,995.924147
1285.425027,6735.874072,-7031.956449,995.924147
1285.425357,6661.853478,-6957.935855,1225.752797
1285.425687,6513.812290,-6957.935855,766.095498
1285.426017,6661.853478,-6809.894666,995.924147
1285.426347,6735.874072,-6883.915261,1072.533697
1285.426677,7031.956449,-6661.853478,919.314598
1285.427007,7328.038826,-6217.729913,1608.800546
1285.427337,7105.977043,-6661.853478,766.095498
1285.427668,7179.997637,-6809.894666,1149.143247
1285.427998,7105.977043,-6365.771101,919.314598
1285.428328,6957.935855,-6661.853478,766.095498
1285.428658,6735.874072,-6513.812290,1149.143247
1285.428988,7031.956449,-6291.750507,842.705048
1285.429318,7328.038826,-6513.812290,1149.143247
1285.429648,7105.977043,-5921.647536,1072.533697
1285.429978,7328.038826,-6661.853478,689.485948
1285.430308,7105.977043,-5921.647536,1072.533697
1285.430639,6957.935855,-6069.688724,919.314598
1285.430969,7031.956449,-5995.668130,995.924147
1285.431299,6957.935855,-6661.853478,919.314598
1285.431629,7105.977043,-7105.977043,612.876398
1285.431959,6883.915261,-6883.915261,995.924147
1285.432289,6883.915261,-6809.894666,919.314598
1285.432619,7105.977043,-6883.915261,1149.143247
1285.432949,6883.915261,-6587.832884,1149.143247
1285.433280,6883.915261,-6661.853478,919.314598
1285.433610,6809.894666,-6735.874072,919.314598
1285.433940,7105.977043,-6587.832884,995.924147
1285.434270,7476.080014,-6513.812290,1302.362347
1285.434600,7550.100608,-6069.688724,842.705048
1285.434930,7328.038826,-6439.791695,1225.752797
1285.435260,7328.038826,-6513.812290,1149.143247
1285.435590,7031.956449,-6513.812290,689.485948
1285.435921,7105.977043,-6513.812290,1149.143247
1285.436251,7105.977043,-6291.750507,1225.752797
1285.436581,7105.977043,-6513.812290,995.924147
1285.436911,6809.894666,-6217.729913,919.314598
1285.437241,7105.977043,-6069.688724,1378.971896
1285.437571,7179.997637,-6143.709319,1302.362347
1285.437901,6587.832884,-6439.791695,1072.533697
1285.438231,6513.812290,-6513.812290,995.924147
1285.438562,6809.894666,-6217.729913,995.924147
1285.438892,6661.853478,-6809.894666,1149.143247
1285.439222,7105.977043,-6957.935855,842.705048
1285.439552,6957.935855,-6735.874072,995.924147
1285.439882,6809.894666,-6883.915261,995.924147
1285.440212,6587.832884,-7105.977043,536.266849
1285.440542,6365.771101,-7105.977043,995.924147
1285.440872,7031.956449,-7031.956449,766.095498
1285.441203,6883.915261,-7105.977043,919.314598
1285.441533,7031.956449,-6513.812290,1072.533697
1285.441863,7179.997637,-6439.791695,842.705048
1285.442193,7105.977043,-6291.750507,1608.800546
1285.442523,7105.977043,-6513.812290,1072.533697
1285.442853,7031.956449,-6735.874072,919.314598
1285.443183,6957.935855,-6587.832884,1072.533697
1285.443513,7105.977043,-5921.647536,919.314598
1285.443844,7254.018232,-6217.729913,1225.752797
1285.444174,7179.997637,-6291.750507,1302.362347
1285.444504,7105.977043,-6661.853478,1072.533697
1285.444834,7105.977043,-6291.750507,1149.143247
1285.445164,7031.956449,-5625.565159,689.485948
1285.445494,6365.771101,-6513.812290,766.095498
1285.445824,6883.915261,-6735.874072,919.314598
1285.446154,7031.956449,-6587.832884,1072.533697
1285.446485,7105.977043,-6513.812290,919.314598
1285.446815,7031.956449,-6365.771101,1149.143247
1285.447145,6883.915261,-6513.812290,842.705048
1285.447475,6735.874072,-6883.915261,689.485948
1285.447805,6735.874072,-7031.956449,766.095498
1285.448135,6883.915261,-7105.977043,1149.143247
1285.448465,7105.977043,-6809.894666,995.924147
1285.448795,7105.977043,-6439.791695,1072.533697
1285.449126,7476.080014,-6365.771101,919.314598
1285.449456,7105.977043,-6513.812290,842.705048
1285.449786,7105.977043,-6217.729913,995.924147
1285.450116,7105.977043,-6291.750507,995.924147
1285.450446,7179.997637,-6587.832884,842.705048
1285.450776,7328.038826,-6217.729913,842.705048
1285.451106,7254.018232,-6217.729913,995.924147
1285.451436,7402.059420,-6291.750507,1378.971896
1285.451767,7105.977043,-6587.832884,1225.752797
1285.452097,7031.956449,-6291.750507,995.924147
1285.452427,7105.977043,-6513.812290,995.924147
1285.452757,6735.874072,-6661.853478,536.266849
1285.453087,7105.977043,-6365.771101,1225.752797
1285.453417,6809.894666,-6735.874072,1149.143247
1285.453747,7031.956449,-7105.977043,1149.143247
1285.454077,6735.874072,-6809.894666,1302.362347
1285.454407,6513.812290,-6735.874072,919.314598
1285.454738,6587.832884,-6809.894666,1072.533697
1285.455068,6365.771101,-6587.832884,689.485948
1285.455398,5699.585753,-6957.935855,919.314598
1285.455728,6957.935855,-6587.832884,1378.971896
1285.456058,7254.018232,-6513.812290,1149.143247
1285.456388,7402.059420,-6513.812290,919.314598
1285.456718,7105.977043,-6883.915261,919.314598
1285.457048,7179.997637,-6291.750507,842.705048
1285.457379,6809.894666,-6513.812290,1149.143247
1285.457709,6809.894666,-6587.832884,1455.581446
1285.458039,6809.894666,-6143.709319,995.924147
1285.458369,7476.080014,-6513.812290,1072.533697
1285.458699,7031.956449,-6143.709319,1072.533697
1285.459029,7031.956449,-6587.832884,1302.362347
1285.459359,7105.977043,-6069.688724,919.314598
1285.459689,6735.874072,-6143.709319,536.266849
1285.460020,6883.915261,-6291.750507,612.876398
1285.460350,7031.956449,-6439.791695,1149.143247
1285.460680,7179.997637,-6735.874072,766.095498
1285.461010,7031.956449,-6809.894666,919.314598
1285.461340,7105.977043,-6439.791695,1225.752797
1285.461670,6883.915261,-6883.915261,1302.362347
1285.462000,7105.977043,-6809.894666,1149.143247
1285.462330,6735.874072,-7698.141797,919.314598
1285.462661,6587.832884,-7031.956449,842.705048
1285.462991,6883.915261,-6883.915261,689.485948
1285.463321,7328.038826,-6661.853478,1225.752797
1285.463651,7105.977043,-6143.709319,995.924147
1285.463981,7254.018232,-6587.832884,1072.533697
1285.464311,7328.038826,-6365.771101,1225.752797
1285.464641,7476.080014,-6661.853478,842.705048
1285.464970,7105.977043,-5995.668130,1302.362347
1285.465300,7105.977043,-6365.771101,1378.971896
1285.465629,7105.977043,-6217.729913,766.095498
1285.465958,7179.997637,-6365.771101,1225.752797
1285.466288,7105.977043,-6513.812290,1225.752797
1285.466617,7031.956449,-6513.812290,1149.143247
1285.466947,6957.935855,-6069.688724,1149.143247
1285.467276,6513.812290,-6291.750507,842.705048
1285.467606,6587.832884,-6365.771101,842.705048
1285.467935,6513.812290,-7105.977043,1838.629195
1285.468265,7031.956449,-6587.832884,1302.362347
1285.468594,6957.935855,-6365.771101,1225.752797
1285.468924,6735.874072,-6735.874072,1302.362347
1285.469253,6735.874072,-6883.915261,1072.533697
1285.469582,6661.853478,-6735.874072,1685.410096
1285.469912,6513.812290,-6809.894666,1225.752797
1285.470241,7105.977043,-6809.894666,1225.752797
1285.470571,7179.997637,-6513.812290,1072.533697
1285.470900,7105.977043,-6661.853478,1302.362347
1285.471230,7105.977043,-6513.812290,1302.362347
1285.471559,7105.977043,-6365.771101,1225.752797
1285.471889,7031.956449,-6439.791695,995.924147
1285.472218,6883.915261,-6661.853478,919.314598
1285.472548,7031.956449,-6217.729913,842.705048
1285.472877,7031.956449,-6439.791695,842.705048
1285.473207,6957.935855,-6439.791695,995.924147
1285.473536,7031.956449,-6291.750507,919.314598
1285.473865,6883.915261,-6735.874072,1072.533697
1285.474195,7328.038826,-6809.894666,1072.533697
1285.474524,6735.874072,-6661.853478,842.705048
1285.474854,6587.832884,-6883.915261,995.924147
1285.475183,6587.832884,-6809.894666,919.314598
1285.475513,7031.956449,-6513.812290,1455.581446
1285.475842,6809.894666,-6809.894666,766.095498
1285.476172,7031.956449,-6513.812290,1302.362347
1285.476501,6809.894666,-6809.894666,995.924147
1285.476831,6217.729913,-6809.894666,689.485948
1285.477160,6439.791695,-6883.915261,1532.190996
1285.477489,6809.894666,-6735.874072,766.095498
1285.477819,7105.977043,-6957.935855,1072.533697
1285.478148,7105.977043,-6291.750507,919.314598
1285.478478,7402.059420,-7105.977043,459.657299
1285.478807,7476.080014,-6291.750507,995.924147
1285.479137,7328.038826,-6661.853478,1225.752797
1285.479466,7179.997637,-6291.750507,1149.143247
1285.479796,7105.977043,-5773.606348,842.705048
1285.480125,7328.038826,-5847.626942,459.657299
1285.480455,7105.977043,-6291.750507,1302.362347
1285.480784,7254.018232,-6439.791695,1455.581446
1285.481113,7179.997637,-5995.668130,919.314598
1285.481443,6883.915261,-6439.791695,1149.143247
1285.481772,6957.935855,-6587.832884,1072.533697
1285.482102,6439.791695,-6661.853478,842.705048
1285.482431,6809.894666,-6735.874072,1149.143247
1285.482761,6735.874072,-6661.853478,1072.533697
1285.483090,7550.100608,-6069.688724,766.095498
1285.483420,6883.915261,-7031.956449,1302.362347
1285.483749,6661.853478,-6883.915261,766.095498
1285.484079,6661.853478,-7105.977043,536.266849
1285.484408,6439.791695,-7105.977043,1072.533697
1285.484738,7179.997637,-7402.059420,995.924147
1285.485067,7179.997637,-6809.894666,1302.362347
1285.485396,7254.018232,-6439.791695,612.876398
1285.485726,7031.956449,-6735.874072,1072.533697
1285.486055,7254.018232,-6217.729913,1532.190996
1285.486385,7328.038826,-6513.812290,919.314598
1285.486714,6883.915261,-6809.894666,919.314598
1285.487044,7031.956449,-6143.709319,1302.362347
1285.487373,7105.977043,-6217.729913,1072.533697
1285.487703,7105.977043,-5847.626942,1608.800546
1285.488032,6957.935855,-6217.729913,1455.581446
1285.488362,6883.915261,-6587.832884,995.924147
1285.488691,6957.935855,-6661.853478,1149.143247
1285.489020,6735.874072,-6587.832884,612.876398
1285.489350,6587.832884,-6661.853478,1072.533697
1285.489679,7105.977043,-7031.956449,1149.143247
1285.490009,6661.853478,-6661.853478,995.924147
1285.490338,6809.894666,-6957.935855,1072.533697
1285.490668,7031.956449,-6291.750507,919.314598
1285.490997,6957.935855,-6883.915261,995.924147
1285.491327,6587.832884,-6291.750507,919.314598
1285.491656,6365.771101,-6883.915261,1072.533697
1285.491986,6809.894666,-6883.915261,612.876398
1285.492315,7105.977043,-7179.997637,1378.971896
1285.492644,7328.038826,-6587.832884,1072.533697
1285.492974,7105.977043,-6735.874072,842.705048
1285.493303,7105.977043,-6735.874072,1608.800546
1285.493633,7179.997637,-6513.812290,1072.533697
1285.493962,7105.977043,-6513.812290,995.924147
1285.494292,7179.997637,-6069.688724,1225.752797
1285.494621,7179.997637,-5995.668130,842.705048
1285.494951,7328.038826,-6291.750507,1149.143247
1285.495280,7179.997637,-6439.791695,919.314598
1285.495610,7328.038826,-5995.668130,995.924147
1285.495939,7105.977043,-6439.791695,1072.533697
1285.496269,6365.771101,-6143.709319,919.314598
1285.496598,6439.791695,-6661.853478,995.924147
1285.496927,7179.997637,-7105.977043,1072.533697
1285.497257,6957.935855,-7031.956449,1149.143247
1285.497586,6957.935855,-6291.750507,1225.752797
1285.497916,6883.915261,-6587.832884,1149.143247
1285.498245,6883.915261,-7031.956449,1685.410096
1285.498575,6957.935855,-7031.956449,536.266849
1285.498904,6735.874072,-6661.853478,1302.362347
1285.499234,6883.915261,-6661.853478,842.705048
1285.499563,7105.977043,-6809.894666,766.095498
1285.499893,7179.997637,-5995.668130,1072.533697
1285.500222,7105.977043,-6661.853478,919.314598
1285.500551,7105.977043,-6513.812290,1225.752797
1285.500881,7105.977043,-6735.874072,919.314598
1285.501210,7179.997637,-6587.832884,383.047749
1285.501540,6957.935855,-6365.771101,919.314598
1285.501869,7254.018232,-6439.791695,842.705048
1285.502199,7476.080014,-6587.832884,1149.143247
1285.502528,7179.997637,-6217.729913,1149.143247
1285.502858,7328.038826,-6439.791695,842.705048
1285.503187,6809.894666,-6143.709319,995.924147
1285.503517,6883.915261,-6217.729913,842.705048
1285.503846,6513.812290,-6217.729913,766.095498
1285.504175,6661.853478,-7105.977043,1685.410096
1285.504505,6957.935855,-6809.894666,995.924147
1285.504834,6661.853478,-7031.956449,1149.143247
1285.505164,6883.915261,-6957.935855,1149.143247
1285.505493,6809.894666,-6957.935855,842.705048
1285.505823,6661.853478,-6957.935855,842.705048
1285.506152,6587.832884,-6809.894666,689.485948
1285.506482,6809.894666,-7105.977043,766.095498
1285.506811,7031.956449,-6661.853478,766.095498
1285.507141,7179.997637,-6661.853478,1149.143247
1285.507470,7624.121203,-6439.791695,1532.190996
1285.507799,7402.059420,-6291.750507,1302.362347
1285.508129,7254.018232,-6143.709319,766.095498
1285.508458,6957.935855,-6587.832884,612.876398
1285.508788,6883.915261,-5995.668130,919.314598
1285.509117,7476.080014,-6439.791695,842.705048
1285.509447,6883.915261,-6291.750507,766.095498
1285.509776,7254.018232,-6439.791695,1149.143247
1285.510106,7328.038826,-6143.709319,842.705048
1285.510435,7772.162391,-6661.853478,1838.629195
1285.510765,6957.935855,-6291.750507,995.924147
1285.511094,6809.894666,-6291.750507,536.266849
1285.511424,6587.832884,-6735.874072,842.705048
1285.511753,7254.018232,-7105.977043,842.705048
1285.512082,7105.977043,-6735.874072,1072.533697
1285.512412,6809.894666,-6513.812290,919.314598
1285.512741,6735.874072,-6587.832884,1072.533697
1285.513071,6735.874072,-6957.935855,919.314598
1285.513400,6661.853478,-6957.935855,919.314598
1285.513730,7105.977043,-5551.544565,766.095498
1285.514059,7994.224174,-5625.565159,1072.533697
1285.514389,8586.388927,-5403.503377,1532.190996
1285.514718,8734.430116,-5773.606348,1302.362347
1285.515048,8142.265362,-5921.647536,919.314598
1285.515377,7105.977043,-7105.977043,536.266849
1285.515706,5625.565159,-7476.080014,-76.609550
1285.516036,6365.771101,-6513.812290,383.047749
1285.516365,7179.997637,-7179.997637,1149.143247
1285.516695,8290.306550,-6291.750507,1915.238745
1285.517024,8364.327145,-5403.503377,1762.019645
1285.517354,8438.347739,-3849.070898,995.924147
1285.517683,8216.285956,-4145.153275,1455.581446
1285.518013,8216.285956,-4145.153275,1532.190996
1285.518342,8512.368333,-4515.256246,1455.581446
1285.518672,8586.388927,-4811.338623,1378.971896
1285.519001,8290.306550,-4663.297435,1455.581446
1285.519330,7624.121203,-5699.585753,1225.752797
1285.519660,7994.224174,-5477.523971,919.314598
1285.519989,8364.327145,-5329.482782,766.095498
1285.520319,8142.265362,-6439.791695,995.924147
1285.520648,7698.141797,-5847.626942,919.314598
1285.520978,7254.018232,-5403.503377,0.000000
1285.521307,7328.038826,-5773.606348,306.438199
1285.521637,8068.244768,-5847.626942,842.705048
1285.521966,8882.471304,-5107.421000,919.314598
1285.522296,9178.553681,-4367.215058,1608.800546
1285.522625,9178.553681,-4293.194464,1225.752797
1285.522955,9326.594869,-3552.988522,995.924147
1285.523284,9474.636058,-3701.029710,1838.629195
1285.523613,9918.759623,-3256.906145,1455.581446
1285.523943,9992.780217,-2368.659014,1378.971896
1285.524272,9770.718434,-2960.823768,1608.800546
1285.524602,9844.739029,-3330.926739,1608.800546
1285.524931,9992.780217,-3997.112087,1685.410096
1285.525261,9474.636058,-4737.318029,1762.019645
1285.525590,8882.471304,-4663.297435,1302.362347
1285.525920,8216.285956,-4885.359217,1149.143247
1285.526249,8290.306550,-5329.482782,1072.533697
1285.526579,7772.162391,-5699.585753,1149.143247
1285.526908,7994.224174,-4959.379811,1915.238745
1285.527237,8512.368333,-4589.276840,766.095498
1285.527567,8586.388927,-4219.173869,1149.143247
1285.527896,8364.327145,-5181.441594,995.924147
1285.528226,7772.162391,-5107.421000,689.485948
1285.528555,7846.182985,-5033.400406,306.438199
1285.528885,8438.347739,-5033.400406,383.047749
1285.529214,8882.471304,-5255.462188,229.828649
1285.529544,8438.347739,-6365.771101,-153.219100
1285.529873,8660.409521,-5625.565159,0.000000
1285.530203,8808.450710,-4811.338623,76.609550
1285.530532,9696.697840,-4737.318029,459.657299
1285.530861,10140.821405,-4737.318029,1455.581446
1285.531191,10066.800811,-3997.112087,1455.581446
1285.531520,10140.821405,-3701.029710,2298.286494
1285.531850,9030.512492,-4145.153275,2451.505594
1285.532179,9104.533087,-3552.988522,1838.629195
1285.532509,9548.656652,-3701.029710,2298.286494
1285.532838,9918.759623,-2516.700203,2451.505594
1285.533168,9696.697840,-2442.679609,1532.190996
1285.533497,9622.677246,-2590.720797,1685.410096
1285.533827,9252.574275,-3256.906145,1072.533697
1285.534156,8882.471304,-3256.906145,306.438199
1285.534486,9030.512492,-3775.050304,0.000000
1285.534815,8734.430116,-4959.379811,-536.266849
1285.535144,8438.347739,-5921.647536,-153.219100
1285.535474,8734.430116,-7105.977043,0.000000
1285.535803,9326.594869,-7254.018232,459.657299
1285.536133,8734.430116,-6291.750507,1915.238745
1285.536462,8586.388927,-6957.935855,1455.581446
1285.536792,8216.285956,-6513.812290,1685.410096
1285.537121,7846.182985,-5699.585753,1685.410096
1285.537451,7846.182985,-5181.441594,1915.238745
1285.537780,8290.306550,-2886.803174,2374.896044
1285.538110,8956.491898,-2516.700203,1762.019645
1285.538439,9696.697840,-1258.350101,1149.143247
1285.538768,10066.800811,-1332.370696,995.924147
1285.539098,10066.800811,-1184.329507,383.047749
1285.539427,9918.759623,-2294.638420,0.000000
1285.539757,9770.718434,-3849.070898,459.657299
1285.540086,9400.615463,-4441.235652,0.000000
1285.540416,8290.306550,-6365.771101,229.828649
1285.540745,7402.059420,-7920.203579,1302.362347
1285.541075,6809.894666,-10066.800811,1378.971896
1285.541404,5625.565159,-10436.903782,1225.752797
1285.541734,5403.503377,-9918.759623,766.095498
1285.542063,4737.318029,-9400.615463,0.000000
1285.542392,4145.153275,-8068.244768,0.000000
1285.542722,5107.421000,-6883.915261,306.438199
1285.543051,6439.791695,-5329.482782,229.828649
1285.543381,7698.141797,-4589.276840,995.924147
1285.543710,8956.491898,-3330.926739,1149.143247
1285.544040,9400.615463,-3034.844362,919.314598
1285.544369,9548.656652,-3330.926739,919.314598
1285.544699,9992.780217,-2738.761985,842.705048
1285.545028,10658.965565,-2516.700203,1302.362347
1285.545358,11769.274478,-3923.091493,766.095498
1285.545687,11399.171507,-4663.297435,1915.238745
1285.546016,9178.553681,-5551.544565,1762.019645
1285.546346,7105.977043,-7179.997637,1685.410096
1285.546675,5847.626942,-7328.038826,2221.676944
1285.547005,5255.462188,-8068.244768,1378.971896
1285.547334,4737.318029,-8142.265362,1072.533697
1285.547664,4589.276840,-8438.347739,766.095498
1285.547993,4811.338623,-8364.327145,689.485948
1285.548323,5625.565159,-6883.915261,1149.143247
1285.548652,6365.771101,-6291.750507,76.609550
1285.548982,6661.853478,-6069.688724,0.000000
1285.549311,7179.997637,-6217.729913,459.657299
1285.549641,7994.224174,-5773.606348,995.924147
1285.549970,8364.327145,-5107.421000,1072.533697
1285.550299,8808.450710,-5699.585753,1455.581446
1285.550629,9178.553681,-5107.421000,1532.190996
1285.550958,9104.533087,-5699.585753,1455.581446
1285.551288,8882.471304,-6217.729913,2298.286494
1285.551617,7920.203579,-6069.688724,1608.800546
1285.551947,7105.977043,-6217.729913,1455.581446
1285.552276,6513.812290,-6661.853478,1072.533697
1285.552606,5847.626942,-6661.853478,1532.190996
1285.552935,5699.585753,-6587.832884,1072.533697
1285.553265,5403.503377,-6883.915261,842.705048
1285.553594,5181.441594,-7105.977043,383.047749
1285.553923,6217.729913,-6735.874072,229.828649
1285.554253,7476.080014,-6513.812290,689.485948
1285.554582,7846.182985,-5773.606348,1608.800546
1285.554912,7624.121203,-5255.462188,1608.800546
1285.555241,7994.224174,-5403.503377,1455.581446
1285.555571,7920.203579,-5181.441594,1762.019645
1285.555900,8364.327145,-5625.565159,1762.019645
1285.556230,7772.162391,-5847.626942,1149.143247
1285.556559,7105.977043,-6217.729913,842.705048
1285.556889,6513.812290,-7254.018232,1225.752797
1285.557218,6587.832884,-7402.059420,1762.019645
1285.557547,6883.915261,-8586.388927,1685.410096
1285.557877,5995.668130,-8290.306550,1455.581446
1285.558206,5477.523971,-8438.347739,1072.533697
1285.558536,4663.297435,-8586.388927,459.657299
1285.558865,4737.318029,-7994.224174,-612.876398
1285.559195,4737.318029,-8512.368333,0.000000
1285.559524,5551.544565,-7179.997637,0.000000
1285.559854,5477.523971,-7772.162391,153.219100
1285.560183,5847.626942,-6957.935855,689.485948
1285.560513,6957.935855,-5551.544565,2068.457845
1285.560842,8586.388927,-5921.647536,2528.115143
1285.561172,9326.594869,-4367.215058,2681.334243
1285.561501,9104.533087,-3552.988522,2451.505594
1285.561830,9178.553681,-2886.803174,2145.067394
1285.562160,8882.471304,-3627.009116,1072.533697
1285.562489,8808.450710,-6809.894666,1762.019645
1285.562819,7994.224174,-7105.977043,2298.286494
1285.563148,7254.018232,-7550.100608,995.924147
1285.563478,6069.688724,-7920.203579,919.314598
1285.563807,4515.256246,-8512.368333,689.485948
1285.564137,4219.173869,-9622.677246,0.000000
1285.564466,3923.091493,-8364.327145,-459.657299
1285.564796,3997.112087,-7994.224174,-766.095498
1285.565125,5255.462188,-7476.080014,-766.095498
1285.565454,6291.750507,-6735.874072,153.219100
1285.565784,7624.121203,-7698.141797,1149.143247
1285.566113,9474.636058,-5329.482782,2221.676944
1285.566443,9548.656652,-4367.215058,2757.943793
1285.566772,9992.780217,-3404.947333,1838.629195
1285.567101,9548.656652,-3775.050304,1608.800546
1285.567430,9326.594869,-3849.070898,766.095498
1285.567759,9030.512492,-5255.462188,1225.752797
1285.568088,8808.450710,-5551.544565,1838.629195
1285.568417,7994.224174,-5625.565159,1838.629195
1285.568747,6735.874072,-7698.141797,1685.410096
1285.569076,5181.441594,-8068.244768,995.924147
1285.569405,4367.215058,-8882.471304,0.000000
1285.569734,3478.967927,-8882.471304,0.000000
1285.570063,4145.153275,-8216.285956,-612.876398
1285.570392,5403.503377,-7994.224174,0.000000
1285.570721,6513.812290,-7179.997637,229.828649
1285.571050,7179.997637,-7772.162391,459.657299
1285.571379,7698.141797,-6365.771101,766.095498
1285.571708,7698.141797,-5551.544565,842.705048
1285.572038,8068.244768,-5107.421000,1225.752797
1285.572367,8438.347739,-4145.153275,1378.971896
1285.572696,8882.471304,-4737.318029,1838.629195
1285.573025,9400.615463,-4737.318029,1302.362347
1285.573354,9252.574275,-4885.359217,1532.190996
1285.573683,7994.224174,-5477.523971,612.876398
1285.574012,7031.956449,-7031.956449,995.924147
1285.574341,5773.606348,-9178.553681,1378.971896
1285.574670,5181.441594,-9400.615463,459.657299
1285.575000,4145.153275,-9400.615463,0.000000
1285.575329,3478.967927,-8364.327145,-383.047749
1285.575658,4219.173869,-8364.327145,0.000000
1285.575987,6217.729913,-7698.141797,536.266849
1285.576316,7328.038826,-6291.750507,1149.143247
1285.576645,7772.162391,-5477.523971,2145.067394
1285.576974,7920.203579,-3923.091493,1532.190996
1285.577303,8216.285956,-4293.194464,1608.800546
1285.577632,8808.450710,-3182.885551,1608.800546
1285.577961,9252.574275,-3849.070898,1455.581446
1285.578291,9326.594869,-4663.297435,1608.800546
1285.578620,8512.368333,-5329.482782,1302.362347
1285.578949,7846.182985,-6883.915261,1378.971896
1285.579278,7254.018232,-7402.059420,1378.971896
1285.579607,5995.668130,-9474.636058,1685.410096
1285.579936,5181.441594,-9474.636058,995.924147
1285.580265,3923.091493,-8882.471304,76.609550
1285.580594,4293.194464,-8808.450710,0.000000
1285.580923,4737.318029,-8364.327145,-153.219100
1285.581252,5551.544565,-7994.224174,383.047749
1285.581582,6143.709319,-7031.956449,536.266849
1285.581911,6809.894666,-5551.544565,459.657299
1285.582240,7254.018232,-4959.379811,1455.581446
1285.582569,8216.285956,-4663.297435,1915.238745
1285.582898,8586.388927,-3997.112087,2221.676944
1285.583227,9474.636058,-3627.009116,2374.896044
1285.583556,10140.821405,-2960.823768,1762.019645
1285.583885,9992.780217,-4071.132681,1149.143247
1285.584214,9104.533087,-5847.626942,1608.800546
1285.584544,7476.080014,-7698.141797,1762.019645
1285.584873,5625.565159,-8660.409521,1072.533697
1285.585202,4663.297435,-8660.409521,612.876398
1285.585531,4367.215058,-9252.574275,306.438199
1285.585860,3997.112087,-9104.533087,-306.438199
1285.586189,3997.112087,-9030.512492,0.000000
1285.586518,4441.235652,-7846.182985,-612.876398
1285.586847,5329.482782,-7402.059420,-612.876398
1285.587176,6587.832884,-7031.956449,536.266849
1285.587505,8364.327145,-5921.647536,1302.362347
1285.587835,8956.491898,-5477.523971,1302.362347
1285.588164,9326.594869,-4663.297435,2145.067394
1285.588493,9474.636058,-4737.318029,1838.629195
1285.588822,9844.739029,-4663.297435,2068.457845
1285.589151,9030.512492,-4145.153275,1685.410096
1285.589480,8660.409521,-4811.338623,1072.533697
1285.589809,7698.141797,-6143.709319,1149.143247
1285.590138,6809.894666,-7179.997637,1302.362347
1285.590467,6291.750507,-7328.038826,1685.410096
1285.590797,5625.565159,-7476.080014,995.924147
1285.591126,4071.132681,-7994.224174,229.828649
1285.591455,3701.029710,-8586.388927,76.609550
1285.591784,4441.235652,-9030.512492,229.828649
1285.592113,5847.626942,-7920.203579,-153.219100
1285.592442,6809.894666,-6513.812290,919.314598
1285.592771,7772.162391,-6069.688724,1762.019645
1285.593100,8808.450710,-5477.523971,1762.019645
1285.593429,9104.533087,-5033.400406,2145.067394
1285.593758,8734.430116,-4589.276840,1455.581446
1285.594088,9104.533087,-4145.153275,1378.971896
1285.594417,9400.615463,-4145.153275,1149.143247
1285.594746,8068.244768,-5403.503377,995.924147
1285.595075,7624.121203,-5995.668130,1225.752797
1285.595404,6661.853478,-7624.121203,76.609550
1285.595733,5255.462188,-7476.080014,612.876398
1285.596062,4515.256246,-10066.800811,459.657299
1285.596391,4145.153275,-9474.636058,229.828649
1285.596720,4219.173869,-8068.244768,-383.047749
1285.597049,4589.276840,-9548.656652,-306.438199
1285.597379,5921.647536,-7476.080014,536.266849
1285.597708,6809.894666,-7179.997637,689.485948
1285.598037,7179.997637,-7105.977043,1762.019645
1285.598366,7402.059420,-4663.297435,1302.362347
1285.598695,7920.203579,-4737.318029,2374.896044
1285.599024,8142.265362,-3849.070898,2451.505594
1285.599353,9104.533087,-3182.885551,2451.505594
1285.599682,9696.697840,-3330.926739,2068.457845
1285.600011,8882.471304,-3256.906145,1225.752797
1285.600341,8142.265362,-5625.565159,1072.533697
1285.600670,7624.121203,-7031.956449,1378.971896
1285.600999,7105.977043,-8438.347739,1455.581446
1285.601328,5995.668130,-9104.533087,766.095498
1285.601657,4737.318029,-8438.347739,536.266849
1285.601986,4367.215058,-9104.533087,0.000000
1285.602315,4737.318029,-9252.574275,0.000000
1285.602644,4737.318029,-8216.285956,229.828649
1285.602973,5551.544565,-8290.306550,-536.266849
1285.603302,6069.688724,-7698.141797,0.000000
1285.603632,6735.874072,-7031.956449,536.266849
1285.603961,7550.100608,-6883.915261,1378.971896
1285.604290,8512.368333,-4811.338623,1991.848295
1285.604619,9178.553681,-3775.050304,1915.238745
1285.604948,9918.759623,-3034.844362,1991.848295
1285.605277,9696.697840,-2812.782580,1762.019645
1285.605606,10214.842000,-3923.091493,1072.533697
1285.605935,9104.533087,-5033.400406,1455.581446
1285.606264,7994.224174,-6439.791695,1225.752797
1285.606593,6513.812290,-8068.244768,1532.190996
1285.606923,5033.400406,-8808.450710,1149.143247
1285.607252,4441.235652,-8956.491898,229.828649
1285.607581,3701.029710,-7846.182985,-383.047749
1285.607910,3997.112087,-8290.306550,-306.438199
1285.608239,5551.544565,-7772.162391,76.609550
1285.608568,6661.853478,-6809.894666,153.219100
1285.608897,6957.935855,-5995.668130,919.314598
1285.609226,7550.100608,-4737.318029,1072.533697
1285.609555,8142.265362,-5329.482782,1915.238745
1285.609885,8734.430116,-4885.359217,1991.848295
1285.610214,8512.368333,-4367.215058,1991.848295
1285.610543,8882.471304,-4885.359217,1225.752797
1285.610872,8660.409521,-4959.379811,1225.752797
1285.611201,8512.368333,-5921.647536,995.924147
1285.611530,8290.306550,-6809.894666,1838.629195
1285.611859,7920.203579,-7179.997637,2298.286494
1285.612188,6957.935855,-8364.327145,1838.629195
1285.612517,5255.462188,-8068.244768,1149.143247
1285.612846,3182.885551,-8438.347739,-459.657299
1285.613176,2368.659014,-8808.450710,-1225.752797
1285.613505,3478.967927,-9252.574275,-995.924147
1285.613834,5477.523971,-8956.491898,383.047749
1285.614163,6883.915261,-8142.265362,1532.190996
1285.614492,7550.100608,-6439.791695,1685.410096
1285.614821,7402.059420,-5107.421000,1991.848295
1285.615150,7846.182985,-5033.400406,1762.019645
1285.615479,8956.491898,-3627.009116,1685.410096
1285.615808,9474.636058,-3552.988522,1762.019645
1285.616137,9548.656652,-3627.009116,1838.629195
1285.616467,8882.471304,-3923.091493,1532.190996
1285.616796,8956.491898,-5847.626942,1532.190996
1285.617125,7772.162391,-7179.997637,1455.581446
1285.617454,6365.771101,-8512.368333,1685.410096
1285.617783,4811.338623,-8216.285956,306.438199
1285.618112,3923.091493,-8290.306550,0.000000
1285.618441,4071.132681,-8142.265362,-766.095498
1285.618770,4811.338623,-8364.327145,0.000000
1285.619099,5847.626942,-7624.121203,229.828649
1285.619429,7254.018232,-6883.915261,995.924147
1285.619758,7476.080014,-7105.977043,1225.752797
1285.620087,7254.018232,-6439.791695,1378.971896
1285.620416,7476.080014,-5921.647536,1608.800546
1285.620745,7328.038826,-5625.565159,1838.629195
1285.621074,7772.162391,-4885.359217,1302.362347
1285.621403,8438.347739,-4441.235652,1378.971896
1285.621732,8956.491898,-3849.070898,1149.143247
1285.622061,9326.594869,-4885.359217,1685.410096
1285.622390,8956.491898,-6069.688724,1685.410096
1285.622720,7624.121203,-7328.038826,1762.019645
1285.623049,6365.771101,-8068.244768,1225.752797
1285.623378,5107.421000,-7994.224174,536.266849
1285.623707,3552.988522,-7846.182985,0.000000
1285.624036,4441.235652,-8956.491898,-536.266849
1285.624365,5403.503377,-8882.471304,76.609550
1285.624694,6069.688724,-8290.306550,842.705048
1285.625023,6735.874072,-7031.956449,995.924147
1285.625352,7105.977043,-5551.544565,1915.238745
1285.625681,7328.038826,-4885.359217,1455.581446
1285.626011,7550.100608,-4663.297435,1838.629195
1285.626340,8216.285956,-3997.112087,2068.457845
1285.626669,9252.574275,-3627.009116,1838.629195
1285.626998,9918.759623,-3923.091493,1225.752797
1285.627327,9696.697840,-4515.256246,1608.800546
1285.627656,8808.450710,-5995.668130,1149.143247
1285.627985,7476.080014,-7550.100608,1608.800546
1285.628314,6809.894666,-7994.224174,1762.019645
1285.628643,4737.318029,-8660.409521,459.657299
1285.628973,3701.029710,-8660.409521,0.000000
1285.629302,3108.864956,-9030.512492,-536.266849
1285.629631,3775.050304,-9030.512492,-536.266849
1285.629960,4737.318029,-8660.409521,995.924147
1285.630289,6143.709319,-8068.244768,842.705048
1285.630618,6587.832884,-6365.771101,689.485948
1285.630947,6957.935855,-5255.462188,1149.143247
1285.631276,7254.018232,-5551.544565,919.314598
1285.631605,8364.327145,-5181.441594,1915.238745
1285.631934,9104.533087,-4515.256246,1532.190996
1285.632264,9474.636058,-4219.173869,1225.752797
1285.632593,9400.615463,-4071.132681,1455.581446
1285.632922,9770.718434,-4811.338623,1532.190996
1285.633251,9622.677246,-6661.853478,2374.896044
1285.633580,8660.409521,-7328.038826,2451.505594
1285.633909,6661.853478,-7328.038826,1455.581446
1285.634238,4737.318029,-7254.018232,306.438199
1285.634567,3404.947333,-7624.121203,0.000000
1285.634896,3256.906145,-8586.388927,-766.095498
1285.635226,4293.194464,-9326.594869,0.000000
1285.635555,5625.565159,-8808.450710,612.876398
1285.635884,6809.894666,-7328.038826,229.828649
1285.636213,7031.956449,-6661.853478,1149.143247
1285.636542,7402.059420,-5921.647536,1455.581446
1285.636871,8438.347739,-5477.523971,1838.629195
1285.637200,8882.471304,-4219.173869,2068.457845
1285.637529,9770.718434,-3478.967927,1149.143247
1285.637858,10066.800811,-3182.885551,1608.800546
1285.638187,9696.697840,-4145.153275,1685.410096
1285.638517,8586.388927,-5921.647536,1685.410096
1285.638846,7105.977043,-6883.915261,1991.848295
1285.639175,6587.832884,-7402.059420,1072.533697
1285.639504,4959.379811,-8068.244768,0.000000
1285.639833,3775.050304,-8660.409521,0.000000
1285.640162,3849.070898,-8734.430116,-766.095498
1285.640491,4663.297435,-8438.347739,-383.047749
1285.640820,5403.503377,-8068.244768,229.828649
1285.641149,6957.935855,-7328.038826,919.314598
1285.641478,7920.203579,-6587.832884,1225.752797
1285.641808,7328.038826,-5921.647536,2068.457845
1285.642137,7105.977043,-4811.338623,1532.190996
1285.642466,8438.347739,-4219.173869,1915.238745
1285.642795,9474.636058,-3627.009116,1991.848295
1285.643124,9622.677246,-3923.091493,1915.238745
1285.643453,9326.594869,-3552.988522,2374.896044
1285.643782,8142.265362,-4663.297435,1685.410096
1285.644111,7105.977043,-6735.874072,1149.143247
1285.644440,6439.791695,-7994.224174,1608.800546
1285.644770,5847.626942,-9400.615463,1762.019645
1285.645099,4145.153275,-9696.697840,842.705048
1285.645428,3404.947333,-9474.636058,0.000000
1285.645757,3404.947333,-10140.821405,-842.705048
1285.646086,4589.276840,-9474.636058,76.609550
1285.646415,5995.668130,-8512.368333,1072.533697
1285.646744,6735.874072,-7031.956449,842.705048
1285.647073,6661.853478,-5255.462188,1532.190996
1285.647402,7624.121203,-4145.153275,2145.067394
1285.647731,9030.512492,-3627.009116,2451.505594
1285.648061,9844.739029,-2960.823768,2604.724693
1285.648390,10214.842000,-2886.803174,2145.067394
1285.648719,9844.739029,-3330.926739,1455.581446
1285.649048,8882.471304,-5033.400406,1378.971896
1285.649377,7846.182985,-7105.977043,1072.533697
1285.649706,6957.935855,-8956.491898,842.705048
1285.650035,5551.544565,-9474.636058,919.314598
1285.650364,3849.070898,-9474.636058,0.000000
1285.650693,3182.885551,-9104.533087,0.000000
1285.651022,3182.885551,-9030.512492,76.609550
1285.651352,4737.318029,-8956.491898,-229.828649
1285.651681,5403.503377,-7772.162391,76.609550
1285.652010,5847.626942,-7105.977043,689.485948
1285.652339,7105.977043,-6069.688724,1149.143247
1285.652668,7846.182985,-4589.276840,1302.362347
1285.652997,8364.327145,-4071.132681,1915.238745
1285.653326,9844.739029,-3478.967927,2374.896044
1285.653655,10658.965565,-3034.844362,1838.629195
1285.653984,9992.780217,-3330.926739,1302.362347
1285.654314,9252.574275,-4811.338623,1149.143247
1285.654643,9178.553681,-5699.585753,1225.752797
1285.654972,8438.347739,-7698.141797,1532.190996
1285.655301,6735.874072,-8438.347739,1991.848295
1285.655630,5773.606348,-8882.471304,1302.362347
1285.655959,4663.297435,-7846.182985,0.000000
1285.656288,3849.070898,-8216.285956,0.000000
1285.656617,3775.050304,-8290.306550,-383.047749
1285.656946,4811.338623,-7920.203579,-459.657299
1285.657275,4737.318029,-7698.141797,0.000000
1285.657605,5921.647536,-7402.059420,459.657299
1285.657934,7254.018232,-6587.832884,1608.800546
1285.658263,8438.347739,-5921.647536,2604.724693
1285.658592,9104.533087,-4219.173869,2451.505594
1285.658921,9770.718434,-3849.070898,2221.676944
1285.659250,9992.780217,-3478.967927,1608.800546
1285.659579,9918.759623,-4293.194464,1455.581446
1285.659908,8956.491898,-5033.400406,1532.190996
1285.660237,7920.203579,-5921.647536,612.876398
1285.660566,7254.018232,-7179.997637,1072.533697
1285.660896,5773.606348,-8660.409521,919.314598
1285.661225,3849.070898,-9400.615463,0.000000
1285.661554,2738.761985,-8956.491898,-689.485948
1285.661883,3330.926739,-7476.080014,-1072.533697
1285.662212,4811.338623,-8290.306550,-612.876398
1285.662541,6439.791695,-8290.306550,842.705048
1285.662870,7550.100608,-6809.894666,1455.581446
1285.663199,8734.430116,-6291.750507,1685.410096
1285.663528,8216.285956,-4589.276840,1991.848295
1285.663858,7772.162391,-5181.441594,1685.410096
1285.664187,8808.450710,-4663.297435,1838.629195
1285.664516,9400.615463,-4441.235652,1838.629195
1285.664845,9474.636058,-4367.215058,1225.752797
1285.665174,8808.450710,-4663.297435,1532.190996
1285.665503,7920.203579,-6217.729913,1762.019645
1285.665832,7179.997637,-7105.977043,1072.533697
1285.666161,5255.462188,-8512.368333,1608.800546
1285.666490,3997.112087,-8438.347739,306.438199
1285.666819,3478.967927,-9474.636058,-229.828649
1285.667149,3478.967927,-9548.656652,-383.047749
1285.667478,4441.235652,-8586.388927,0.000000
1285.667807,5995.668130,-7772.162391,0.000000
1285.668136,7105.977043,-6587.832884,1072.533697
1285.668465,7328.038826,-6069.688724,1378.971896
1285.668794,7624.121203,-5181.441594,1991.848295
1285.669123,8216.285956,-3552.988522,2298.286494
1285.669452,9104.533087,-3849.070898,2145.067394
1285.669782,9474.636058,-3108.864956,2298.286494
1285.670111,9770.718434,-4071.132681,1532.190996
1285.670440,9474.636058,-4885.359217,1455.581446
1285.670769,8142.265362,-5995.668130,1532.190996
1285.671098,7105.977043,-7624.121203,919.314598
1285.671427,6069.688724,-7920.203579,1149.143247
1285.671757,4811.338623,-9252.574275,459.657299
1285.672086,3552.988522,-9770.718434,0.000000
1285.672415,2960.823768,-9252.574275,-612.876398
1285.672744,3849.070898,-8956.491898,-229.828649
1285.673073,5477.523971,-8290.306550,-306.438199
1285.673402,6439.791695,-7550.100608,919.314598
1285.673732,6661.853478,-6957.935855,842.705048
1285.674061,7402.059420,-6069.688724,919.314598
1285.674390,7550.100608,-4663.297435,1608.800546
1285.674719,7920.203579,-4885.359217,1608.800546
1285.675048,8808.450710,-4293.194464,1532.190996
1285.675377,9548.656652,-3330.926739,1991.848295
1285.675707,9770.718434,-4885.359217,1455.581446
1285.676036,9622.677246,-5033.400406,2145.067394
1285.676365,9474.636058,-5921.647536,1838.629195
1285.676694,8364.327145,-6439.791695,1532.190996
1285.677023,6513.812290,-6735.874072,1072.533697
1285.677352,4663.297435,-8586.388927,995.924147
1285.677681,4293.194464,-8882.471304,153.219100
1285.678011,3849.070898,-8734.430116,0.000000
1285.678340,3775.050304,-7994.224174,-229.828649
1285.678669,5403.503377,-8290.306550,153.219100
1285.678998,6439.791695,-7994.224174,689.485948
1285.679327,6735.874072,-7254.018232,1225.752797
1285.679656,7105.977043,-5403.503377,2451.505594
1285.679986,7772.162391,-4663.297435,2221.676944
1285.680315,8734.430116,-4293.194464,1455.581446
1285.680644,9474.636058,-3923.091493,1991.848295
1285.680973,9474.636058,-3701.029710,1685.410096
1285.681302,10140.821405,-4515.256246,1302.362347
1285.681631,8882.471304,-5329.482782,1838.629195
1285.681961,7624.121203,-6217.729913,1072.533697
1285.682290,6587.832884,-7031.956449,842.705048
1285.682619,5255.462188,-8142.265362,689.485948
1285.682948,4293.194464,-9178.553681,383.047749
1285.683277,3701.029710,-8808.450710,0.000000
1285.683606,4663.297435,-7994.224174,0.000000
1285.683936,5921.647536,-7402.059420,0.000000
1285.684265,6883.915261,-7254.018232,919.314598
1285.684594,7402.059420,-6291.750507,1302.362347
1285.684923,7920.203579,-5699.585753,1838.629195
1285.685252,7994.224174,-5329.482782,1762.019645
1285.685581,7402.059420,-4811.338623,1608.800546
1285.685911,8216.285956,-4959.379811,1455.581446
1285.686240,8512.368333,-4811.338623,1378.971896
1285.686569,8512.368333,-4959.379811,1608.800546
1285.686898,7920.203579,-5255.462188,1685.410096
1285.687227,7624.121203,-5551.544565,1072.533697
1285.687556,7031.956449,-7624.121203,1762.019645
1285.687885,5773.606348,-8734.430116,1378.971896
1285.688215,4589.276840,-8956.491898,536.266849
1285.688544,3701.029710,-8956.491898,-153.219100
1285.688873,4219.173869,-8734.430116,-612.876398
1285.689202,5329.482782,-8364.327145,0.000000
1285.689531,7031.956449,-7772.162391,459.657299
1285.689860,7550.100608,-6513.812290,766.095498
1285.690190,7179.997637,-6291.750507,766.095498
1285.690519,7031.956449,-5773.606348,1225.752797
1285.690848,7772.162391,-5329.482782,1608.800546
1285.691177,9030.512492,-4219.173869,1378.971896
1285.691506,9474.636058,-3701.029710,2298.286494
1285.691835,9622.677246,-3701.029710,1302.362347
1285.692165,9770.718434,-4441.235652,1991.848295
1285.692494,8808.450710,-4811.338623,1608.800546
1285.692823,7402.059420,-6143.709319,1072.533697
1285.693152,6291.750507,-7476.080014,1072.533697
1285.693481,5255.462188,-8586.388927,689.485948
1285.693810,4515.256246,-7772.162391,229.828649
1285.694140,4293.194464,-8216.285956,0.000000
1285.694469,5181.441594,-7772.162391,0.000000
1285.694798,5477.523971,-7698.141797,153.219100
1285.695127,5847.626942,-7772.162391,842.705048
1285.695456,6217.729913,-7031.956449,689.485948
1285.695785,6809.894666,-6439.791695,919.314598
1285.696114,7476.080014,-5847.626942,1455.581446
1285.696444,8068.244768,-4885.359217,1762.019645
1285.696773,8586.388927,-4515.256246,1455.581446
1285.697102,9030.512492,-4589.276840,1455.581446
1285.697431,8586.388927,-4959.379811,1149.143247
1285.697760,8364.327145,-6069.688724,1072.533697
1285.698089,8068.244768,-7254.018232,1685.410096
1285.698419,7698.141797,-7402.059420,1685.410096
1285.698748,6291.750507,-8290.306550,1378.971896
1285.699077,4811.338623,-8142.265362,229.828649
1285.699406,4145.153275,-8142.265362,153.219100
1285.699735,4589.276840,-8068.244768,76.609550
1285.700064,5033.400406,-8068.244768,-229.828649
1285.700394,5921.647536,-8142.265362,383.047749
1285.700723,6661.853478,-7402.059420,1072.533697
1285.701052,7179.997637,-6883.915261,1149.143247
1285.701381,7328.038826,-5033.400406,1378.971896
1285.701710,7994.224174,-4885.359217,1762.019645
1285.702039,8734.430116,-4885.359217,1838.629195
1285.702369,9252.574275,-4589.276840,1685.410096
1285.702698,9104.533087,-3923.091493,1378.971896
1285.703027,9326.594869,-4737.318029,1532.190996
1285.703356,8808.450710,-6069.688724,1838.629195
1285.703685,7624.121203,-6883.915261,2145.067394
1285.704014,6513.812290,-7105.977043,2068.457845
1285.704344,5255.462188,-7846.182985,689.485948
1285.704673,4145.153275,-7698.141797,0.000000
1285.705002,4145.153275,-8586.388927,0.000000
1285.705331,4737.318029,-8290.306550,229.828649
1285.705660,5699.585753,-7031.956449,0.000000
1285.705989,6291.750507,-6365.771101,1302.362347
1285.706318,7179.997637,-5699.585753,1838.629195
1285.706648,7402.059420,-5255.462188,2145.067394
1285.706977,7772.162391,-4515.256246,2987.772442
1285.707306,8216.285956,-4071.132681,1532.190996
1285.707635,8290.306550,-4293.194464,1072.533697
1285.707964,8586.388927,-5033.400406,1378.971896
1285.708293,8512.368333,-6143.709319,1455.581446
1285.708623,8216.285956,-6587.832884,2221.676944
1285.708952,7476.080014,-7328.038826,1685.410096
1285.709281,6217.729913,-8512.368333,1532.190996
1285.709610,4885.359217,-9030.512492,995.924147
1285.709939,3552.988522,-8660.409521,153.219100
1285.710268,3182.885551,-8956.491898,-459.657299
1285.710598,3923.091493,-8734.430116,-919.314598
1285.710927,4885.359217,-8068.244768,0.000000
1285.711256,6661.853478,-7624.121203,306.438199
1285.711585,8438.347739,-6735.874072,1532.190996
1285.711914,8142.265362,-5847.626942,1608.800546
1285.712243,7994.224174,-5107.421000,1838.629195
1285.712573,9178.553681,-3849.070898,2221.676944
1285.712902,10362.883188,-3775.050304,1915.238745
1285.713231,9770.718434,-3552.988522,1532.190996
1285.713560,9326.594869,-4663.297435,1378.971896
1285.713889,8956.491898,-5403.503377,1608.800546
1285.714218,8364.327145,-6809.894666,1072.533697
1285.714547,6957.935855,-7179.997637,1991.848295
1285.714877,5477.523971,-8290.306550,842.705048
1285.715206,4293.194464,-9252.574275,612.876398
1285.715535,3849.070898,-8660.409521,0.000000
1285.715864,4071.132681,-8216.285956,-383.047749
1285.716193,5107.421000,-7105.977043,-306.438199
1285.716522,6587.832884,-7105.977043,612.876398
1285.716852,7179.997637,-7179.997637,689.485948
1285.717181,7254.018232,-6069.688724,1455.581446
1285.717510,7550.100608,-5329.482782,1225.752797
1285.717839,7772.162391,-5181.441594,1608.800546
1285.718168,8364.327145,-4663.297435,1685.410096
1285.718497,8882.471304,-4293.194464,995.924147
1285.718827,9030.512492,-3923.091493,1149.143247
1285.719156,9030.512492,-4885.359217,689.485948
1285.719485,8438.347739,-6291.750507,1302.362347
1285.719814,7920.203579,-7105.977043,2068.457845
1285.720143,7254.018232,-8216.285956,1378.971896
1285.720472,5477.523971,-8438.347739,766.095498
1285.720802,4219.173869,-8660.409521,0.000000
1285.721131,3775.050304,-8586.388927,0.000000
1285.721460,4293.194464,-8290.306550,76.609550
1285.721789,5699.585753,-7994.224174,306.438199
1285.722118,6513.812290,-7031.956449,995.924147
1285.722447,7105.977043,-6291.750507,842.705048
1285.722777,7772.162391,-5995.668130,1455.581446
1285.723106,7772.162391,-5773.606348,1532.190996
1285.723435,8216.285956,-5847.626942,1915.238745
1285.723764,8586.388927,-3997.112087,1608.800546
1285.724093,9178.553681,-4737.318029,1149.143247
1285.724422,8512.368333,-5033.400406,1225.752797
1285.724751,8438.347739,-5921.647536,1302.362347
1285.725081,8216.285956,-6587.832884,1685.410096
1285.725410,6735.874072,-6587.832884,1149.143247
1285.725739,6069.688724,-7698.141797,1225.752797
1285.726068,4811.338623,-8364.327145,842.705048
1285.726397,3997.112087,-7772.162391,0.000000
1285.726726,4811.338623,-9178.553681,-689.485948
1285.727056,5181.441594,-7846.182985,229.828649
1285.727385,6439.791695,-7624.121203,689.485948
1285.727714,7254.018232,-6809.894666,1149.143247
1285.728043,7402.059420,-6587.832884,1455.581446
1285.728372,7624.121203,-6291.750507,1532.190996
1285.728701,7846.182985,-5847.626942,1532.190996
1285.729031,8068.244768,-4959.379811,1455.581446
1285.729360,7994.224174,-4885.359217,383.047749
1285.729689,8364.327145,-4737.318029,1225.752797
1285.730018,8882.471304,-5033.400406,1608.800546
1285.730347,8438.347739,-6587.832884,2145.067394
1285.730676,7698.141797,-6735.874072,2374.896044
1285.731006,6735.874072,-7105.977043,2068.457845
1285.731335,5181.441594,-7476.080014,766.095498
1285.731664,3701.029710,-8068.244768,229.828649
1285.731993,3775.050304,-8808.450710,-229.828649
1285.732322,4737.318029,-8512.368333,76.609550
1285.732651,6291.750507,-7698.141797,612.876398
1285.732981,7179.997637,-7105.977043,612.876398
1285.733310,7476.080014,-6513.812290,995.924147
1285.733639,6735.874072,-6735.874072,1149.143247
1285.733968,6513.812290,-6217.729913,536.266849
1285.734297,7624.121203,-5255.462188,1225.752797
1285.734626,8956.491898,-4663.297435,1838.629195
1285.734955,9992.780217,-3997.112087,2451.505594
1285.735285,9400.615463,-4293.194464,1991.848295
1285.735614,8364.327145,-4811.338623,2145.067394
1285.735943,7920.203579,-5699.585753,1302.362347
1285.736272,6809.894666,-7402.059420,1378.971896
1285.736601,5403.503377,-7920.203579,689.485948
1285.736930,4515.256246,-8364.327145,306.438199
1285.737260,4663.297435,-7846.182985,153.219100
1285.737589,4737.318029,-8512.368333,229.828649
1285.737918,5847.626942,-7550.100608,536.266849
1285.738247,7031.956449,-7402.059420,766.095498
1285.738576,6957.935855,-7328.038826,919.314598
1285.738905,6513.812290,-6439.791695,153.219100
1285.739235,5995.668130,-5995.668130,766.095498
1285.739564,6809.894666,-5477.523971,919.314598
1285.739893,7994.224174,-5329.482782,1378.971896
1285.740222,9326.594869,-4515.256246,1991.848295
1285.740551,10140.821405,-4441.235652,1685.410096
1285.740880,9770.718434,-4145.153275,1762.019645
1285.741210,9252.574275,-4959.379811,1991.848295
1285.741539,7920.203579,-6661.853478,2068.457845
1285.741868,6735.874072,-6587.832884,1762.019645
1285.742197,5773.606348,-7846.182985,536.266849
1285.742526,4145.153275,-8068.244768,0.000000
1285.742855,4071.132681,-9252.574275,-153.219100
1285.743184,4959.379811,-8882.471304,229.828649
1285.743514,5773.606348,-8586.388927,0.000000
1285.743843,5773.606348,-7920.203579,536.266849
1285.744172,6365.771101,-7105.977043,689.485948
1285.744501,7031.956449,-6439.791695,1302.362347
1285.744830,7476.080014,-5033.400406,1532.190996
1285.745159,8586.388927,-4885.359217,1608.800546
1285.745489,9844.739029,-4367.215058,2221.676944
1285.745818,9844.739029,-3256.906145,1378.971896
1285.746147,9104.533087,-4737.318029,1915.238745
1285.746476,9104.533087,-4959.379811,2068.457845
1285.746805,8142.265362,-6439.791695,1225.752797
1285.747134,6883.915261,-7624.121203,1838.629195
1285.747464,5477.523971,-7550.100608,919.314598
1285.747793,4663.297435,-7994.224174,-229.828649
1285.748122,3849.070898,-8290.306550,-229.828649
1285.748451,3997.112087,-8882.471304,-459.657299
1285.748780,5255.462188,-8290.306550,0.000000
1285.749109,6587.832884,-7698.141797,612.876398
1285.749439,7624.121203,-7031.956449,1532.190996
1285.749768,7550.100608,-5107.421000,1532.190996
1285.750097,7994.224174,-5255.462188,1455.581446
1285.750426,8068.244768,-4885.359217,1991.848295
1285.750755,9400.615463,-3997.112087,2068.457845
1285.751084,9400.615463,-4367.215058,1302.362347
1285.751414,9326.594869,-5181.441594,1685.410096
1285.751743,8882.471304,-5329.482782,1685.410096
1285.752072,8290.306550,-6661.853478,1762.019645
1285.752401,7105.977043,-7624.121203,2451.505594
1285.752730,6143.709319,-8438.347739,1685.410096
1285.753059,4515.256246,-8068.244768,306.438199
1285.753388,3404.947333,-8364.327145,-995.924147
1285.753718,3108.864956,-9104.533087,-842.705048
1285.754047,4071.132681,-9400.615463,-612.876398
1285.754376,5625.565159,-8734.430116,76.609550
1285.754705,6587.832884,-7476.080014,536.266849
1285.755034,7476.080014,-6957.935855,1072.533697
1285.755363,8142.265362,-5551.544565,1378.971896
1285.755693,8216.285956,-5403.503377,1608.800546
1285.756022,8438.347739,-4811.338623,1532.190996
1285.756351,9326.594869,-3997.112087,1532.190996
1285.756680,9474.636058,-3997.112087,1149.143247
1285.757009,9326.594869,-3849.070898,2145.067394
1285.757338,8586.388927,-5477.523971,1838.629195
1285.757668,8216.285956,-6143.709319,2221.676944
1285.757997,7105.977043,-7254.018232,1838.629195
1285.758326,5181.441594,-7476.080014,383.047749
1285.758655,3552.988522,-7624.121203,-383.047749
1285.758984,3256.906145,-8142.265362,-459.657299
1285.759313,3997.112087,-8068.244768,-536.266849
1285.759643,6069.688724,-7772.162391,536.266849
1285.759972,7624.121203,-6883.915261,1149.143247
1285.760301,7994.224174,-6217.729913,1532.190996
1285.760630,7476.080014,-5255.462188,1455.581446
1285.760959,7105.977043,-5625.565159,1685.410096
1285.761288,7624.121203,-5477.523971,1302.362347
1285.761617,7994.224174,-3997.112087,1302.362347
1285.761947,8956.491898,-3849.070898,1378.971896
1285.762276,9696.697840,-5033.400406,1838.629195
1285.762605,9474.636058,-5773.606348,2221.676944
1285.762934,8290.306550,-7031.956449,1838.629195
1285.763263,7179.997637,-7476.080014,1532.190996
1285.763592,5921.647536,-7920.203579,536.266849
1285.763922,4737.318029,-8734.430116,76.609550
1285.764251,3701.029710,-9104.533087,-229.828649
1285.764580,3849.070898,-9030.512492,-306.438199
1285.764909,4885.359217,-8512.368333,0.000000
1285.765238,5921.647536,-8364.327145,536.266849
1285.765567,6439.791695,-7105.977043,383.047749
1285.765897,6587.832884,-6735.874072,1149.143247
1285.766226,7105.977043,-7031.956449,1455.581446
1285.766555,7698.141797,-5255.462188,1915.238745
1285.766884,8660.409521,-4885.359217,2068.457845
1285.767213,9252.574275,-3552.988522,2068.457845
1285.767542,9178.553681,-2960.823768,2068.457845
1285.767871,9030.512492,-4367.215058,1378.971896
1285.768200,8512.368333,-5551.544565,1991.848295
1285.768529,7698.141797,-6809.894666,1608.800546
1285.768858,6735.874072,-7254.018232,1225.752797
1285.769188,4737.318029,-7550.100608,1072.533697
1285.769517,3701.029710,-8216.285956,153.219100
1285.769846,3997.112087,-8216.285956,-229.828649
1285.770175,4663.297435,-8364.327145,229.828649
1285.770504,5847.626942,-7105.977043,229.828649
1285.770833,6735.874072,-6809.894666,612.876398
1285.771162,7772.162391,-6069.688724,1302.362347
1285.771491,7698.141797,-5995.668130,1455.581446
1285.771820,7624.121203,-5847.626942,1608.800546
1285.772149,8364.327145,-4367.215058,1608.800546
1285.772478,9178.553681,-3923.091493,1378.971896
1285.772807,9326.594869,-3923.091493,1455.581446
1285.773136,8956.491898,-4737.318029,1838.629195
1285.773465,9326.594869,-5921.647536,1455.581446
1285.773794,7698.141797,-5847.626942,1762.019645
1285.774123,6217.729913,-7698.141797,1302.362347
1285.774452,4885.359217,-8956.491898,919.314598
1285.774781,3775.050304,-9178.553681,76.609550
1285.775110,2886.803174,-9696.697840,-1378.971896
1285.775440,3552.988522,-9252.574275,0.000000
1285.775769,5033.400406,-8882.471304,76.609550
1285.776098,6365.771101,-8586.388927,842.705048
1285.776427,6513.812290,-7402.059420,1455.581446
1285.776756,7328.038826,-6883.915261,1378.971896
1285.777085,7550.100608,-5403.503377,1378.971896
1285.777414,8808.450710,-4811.338623,2145.067394
1285.777743,9622.677246,-4811.338623,2221.676944
1285.778072,10510.924376,-2664.741391,1762.019645
1285.778401,10288.862594,-2738.761985,1302.362347
1285.778730,9178.553681,-3997.112087,1685.410096
1285.779059,8512.368333,-5255.462188,1532.190996
1285.779388,7624.121203,-7031.956449,1608.800546
1285.779717,6217.729913,-7772.162391,1149.143247
1285.780046,4071.132681,-8068.244768,-306.438199
1285.780375,3034.844362,-8660.409521,-383.047749
1285.780704,3404.947333,-9622.677246,0.000000
1285.781033,4737.318029,-9178.553681,306.438199
1285.781362,6143.709319,-7402.059420,383.047749
1285.781691,6809.894666,-6661.853478,1302.362347
1285.782021,7476.080014,-6069.688724,1302.362347
1285.782350,7105.977043,-5551.544565,1915.238745
1285.782679,7846.182985,-5107.421000,2528.115143
1285.783008,8956.491898,-3997.112087,1608.800546
1285.783337,9474.636058,-3404.947333,1455.581446
1285.783666,9622.677246,-3404.947333,1685.410096
1285.783995,9030.512492,-4811.338623,1608.800546
1285.784324,9030.512492,-6217.729913,1302.362347
1285.784653,7698.141797,-7105.977043,1685.410096
1285.784982,6217.729913,-8512.368333,1149.143247
1285.785311,5033.400406,-8734.430116,383.047749
1285.785640,3552.988522,-9178.553681,-229.828649
1285.785969,3182.885551,-10140.821405,-766.095498
1285.786298,3775.050304,-9474.636058,-383.047749
1285.786627,5625.565159,-9474.636058,612.876398
1285.786956,6661.853478,-8216.285956,1225.752797
1285.787285,6661.853478,-6217.729913,1302.362347
1285.787614,7105.977043,-6291.750507,1455.581446
1285.787943,7846.182985,-5625.565159,2451.505594
1285.788272,8734.430116,-4219.173869,2451.505594
1285.788602,9474.636058,-3256.906145,1378.971896
1285.788931,9252.574275,-1924.535449,1838.629195
1285.789260,9696.697840,-3775.050304,1455.581446
1285.789589,8882.471304,-5403.503377,1762.019645
1285.789918,7698.141797,-6735.874072,1685.410096
1285.790247,7328.038826,-7105.977043,1149.143247
1285.790576,6143.709319,-7994.224174,459.657299
1285.790905,4367.215058,-8660.409521,536.266849
1285.791234,3701.029710,-8734.430116,0.000000
1285.791563,4737.318029,-8216.285956,-229.828649
1285.791892,5995.668130,-7328.038826,306.438199
1285.792221,6735.874072,-6957.935855,459.657299
1285.792550,7698.141797,-5551.544565,1532.190996
1285.792879,8068.244768,-5255.462188,1149.143247
1285.793208,7402.059420,-5551.544565,2068.457845
1285.793537,7994.224174,-4441.235652,1838.629195
1285.793866,8734.430116,-4515.256246,1762.019645
1285.794195,9400.615463,-4441.235652,1608.800546
1285.794524,8734.430116,-4737.318029,1225.752797
1285.794854,7920.203579,-5033.400406,1455.581446
1285.795183,8512.368333,-6587.832884,1302.362347
1285.795512,7772.162391,-8216.285956,1991.848295
1285.795841,6661.853478,-8512.368333,1991.848295
1285.796170,5033.400406,-8512.368333,919.314598
1285.796499,3182.885551,-8734.430116,0.000000
1285.796828,2886.803174,-9104.533087,-842.705048
1285.797157,3701.029710,-8586.388927,-536.266849
1285.797486,4811.338623,-8734.430116,76.609550
1285.797815,6883.915261,-7476.080014,689.485948
1285.798144,7031.956449,-6513.812290,1378.971896
1285.798473,7624.121203,-5699.585753,1149.143247
1285.798802,8734.430116,-4663.297435,1915.238745
1285.799131,9548.656652,-4737.318029,1915.238745
1285.799460,9918.759623,-4145.153275,1149.143247
1285.799789,9252.574275,-3775.050304,1455.581446
1285.800118,9252.574275,-4367.215058,1149.143247
1285.800447,8808.450710,-5033.400406,1455.581446
1285.800776,8142.265362,-6809.894666,1608.800546
1285.801105,7328.038826,-7105.977043,2221.676944
1285.801435,5699.585753,-7328.038826,536.266849
1285.801764,3997.112087,-7920.203579,0.000000
1285.802093,3256.906145,-7994.224174,-229.828649
1285.802422,4071.132681,-8290.306550,-229.828649
1285.802751,5033.400406,-7328.038826,0.000000
1285.803080,6217.729913,-6883.915261,383.047749
1285.803409,7105.977043,-6143.709319,1608.800546
1285.803738,8290.306550,-5551.544565,1915.238745
1285.804067,8216.285956,-6069.688724,1991.848295
1285.804396,8142.265362,-5107.421000,1455.581446
1285.804725,8068.244768,-5033.400406,1149.143247
1285.805054,8882.471304,-4663.297435,1225.752797
1285.805383,9252.574275,-4959.379811,2145.067394
1285.805712,8808.450710,-5403.503377,1838.629195
1285.806041,8882.471304,-5699.585753,1378.971896
1285.806370,8142.265362,-6809.894666,1915.238745
1285.806699,6513.812290,-7994.224174,1455.581446
1285.807028,4885.359217,-7920.203579,383.047749
1285.807357,3256.906145,-8364.327145,-459.657299
1285.807686,2738.761985,-9252.574275,-842.705048
1285.808016,3849.070898,-8660.409521,0.000000
1285.808345,5995.668130,-8438.347739,76.609550
1285.808674,7402.059420,-7698.141797,1225.752797
1285.809003,7698.141797,-6513.812290,1455.581446
1285.809332,7179.997637,-5921.647536,1762.019645
1285.809661,7550.100608,-5847.626942,1762.019645
1285.809990,8734.430116,-5921.647536,2374.896044
1285.810319,8808.450710,-4589.276840,1685.410096
1285.810648,8956.491898,-3997.112087,1532.190996
1285.810977,9104.533087,-4515.256246,1608.800546
1285.811306,8882.471304,-5403.503377,1608.800546
1285.811635,7698.141797,-6587.832884,1302.362347
1285.811964,6291.750507,-7328.038826,689.485948
1285.812293,4959.379811,-8438.347739,0.000000
1285.812622,3701.029710,-8586.388927,0.000000
1285.812951,3478.967927,-8660.409521,-383.047749
1285.813280,4589.276840,-8586.388927,-306.438199
1285.813609,5921.647536,-7698.141797,0.000000
1285.813938,6735.874072,-7179.997637,536.266849
1285.814268,7179.997637,-6587.832884,1225.752797
1285.814597,7624.121203,-5551.544565,1149.143247
1285.814926,7994.224174,-5403.503377,1378.971896
1285.815255,8290.306550,-4441.235652,1608.800546
1285.815584,9326.594869,-3997.112087,2145.067394
1285.815913,9770.718434,-3849.070898,2068.457845
1285.816242,9844.739029,-3627.009116,1608.800546
1285.816571,8882.471304,-5329.482782,1532.190996
1285.816900,8290.306550,-5995.668130,1991.848295
1285.817229,7105.977043,-7698.141797,1991.848295
1285.817558,6217.729913,-8808.450710,689.485948
1285.817887,4441.235652,-7772.162391,383.047749
1285.818216,3627.009116,-8956.491898,-459.657299
1285.818545,3701.029710,-9178.553681,-229.828649
1285.818874,4367.215058,-8808.450710,0.000000
1285.819203,5625.565159,-8364.327145,76.609550
1285.819532,6661.853478,-7402.059420,306.438199
1285.819861,6957.935855,-7031.956449,1302.362347
1285.820190,7550.100608,-6217.729913,1378.971896
1285.820519,8290.306550,-4737.318029,1532.190996
1285.820849,9178.553681,-3849.070898,1762.019645
1285.821178,9844.739029,-3404.947333,1302.362347
1285.821507,9918.759623,-3849.070898,1608.800546
1285.821836,9696.697840,-3923.091493,1608.800546
1285.822165,9326.594869,-5551.544565,1302.362347
1285.822494,7920.203579,-6439.791695,1378.971896
1285.822823,6587.832884,-7254.018232,1225.752797
1285.823152,4811.338623,-8586.388927,383.047749
1285.823481,3330.926739,-8216.285956,0.000000
1285.823810,3034.844362,-8882.471304,-689.485948
1285.824139,4293.194464,-9030.512492,0.000000
1285.824468,5773.606348,-8290.306550,842.705048
1285.824797,6735.874072,-7105.977043,995.924147
1285.825126,7328.038826,-5921.647536,1302.362347
1285.825455,6957.935855,-5699.585753,2221.676944
1285.825784,8068.244768,-4737.318029,1455.581446
1285.826113,8290.306550,-4441.235652,1608.800546
1285.826442,8660.409521,-3849.070898,1685.410096
1285.826771,9030.512492,-4071.132681,1302.362347
1285.827100,9178.553681,-4885.359217,2068.457845
1285.827430,8734.430116,-5921.647536,1608.800546
1285.827759,7994.224174,-6661.853478,1532.190996
1285.828088,7476.080014,-7698.141797,1608.800546
1285.828417,5699.585753,-8586.388927,1149.143247
1285.828746,4663.297435,-9030.512492,766.095498
1285.829075,4219.173869,-8734.430116,0.000000
1285.829404,3923.091493,-8290.306550,-689.485948
1285.829733,4663.297435,-7476.080014,-306.438199
1285.830062,5625.565159,-7698.141797,612.876398
1285.830391,7031.956449,-7476.080014,1225.752797
1285.830720,7402.059420,-6143.709319,1455.581446
1285.831049,6809.894666,-5255.462188,2145.067394
1285.831378,7994.224174,-4737.318029,1838.629195
1285.831707,9104.533087,-4959.379811,2298.286494
1285.832036,9474.636058,-4219.173869,2145.067394
1285.832365,9474.636058,-4071.132681,2068.457845
1285.832694,8882.471304,-4293.194464,1608.800546
1285.833023,8290.306550,-5625.565159,1225.752797
1285.833352,7105.977043,-7179.997637,1532.190996
1285.833682,5551.544565,-8660.409521,1149.143247
1285.834011,4663.297435,-8882.471304,76.609550
1285.834340,3627.009116,-8068.244768,-229.828649
1285.834669,3552.988522,-8438.347739,-229.828649
1285.834998,4959.379811,-8364.327145,0.000000
1285.835327,6365.771101,-7254.018232,612.876398
1285.835656,6883.915261,-6291.750507,766.095498
1285.835985,7328.038826,-5847.626942,1072.533697
1285.836314,7920.203579,-5403.503377,1149.143247
1285.836643,8290.306550,-5181.441594,1455.581446
1285.836972,8512.368333,-5107.421000,1838.629195
1285.837301,8956.491898,-4811.338623,1838.629195
1285.837630,9474.636058,-4737.318029,1532.190996
1285.837959,8882.471304,-4737.318029,1685.410096
1285.838288,8364.327145,-5477.523971,995.924147
1285.838617,7698.141797,-6587.832884,2374.896044
1285.838946,6957.935855,-8142.265362,1915.238745
1285.839275,5403.503377,-8068.244768,995.924147
1285.839604,4219.173869,-8068.244768,0.000000
1285.839933,3849.070898,-8586.388927,-153.219100
1285.840263,4145.153275,-9030.512492,-229.828649
1285.840592,4959.379811,-8068.244768,0.000000
1285.840921,6143.709319,-7846.182985,383.047749
1285.841250,6883.915261,-6957.935855,229.828649
1285.841579,7328.038826,-6513.812290,1072.533697
1285.841908,7105.977043,-5625.565159,1915.238745
1285.842237,8734.430116,-5107.421000,1762.019645
1285.842566,9474.636058,-4737.318029,1991.848295
1285.842895,9696.697840,-3997.112087,1762.019645
1285.843224,9400.615463,-4515.256246,1455.581446
1285.843553,9178.553681,-4737.318029,1685.410096
1285.843882,8216.285956,-5995.668130,1225.752797
1285.844211,7105.977043,-7105.977043,1302.362347
1285.844540,5847.626942,-7550.100608,1532.190996
1285.844869,5551.544565,-7698.141797,536.266849
1285.845198,4219.173869,-8438.347739,0.000000
1285.845527,3775.050304,-8586.388927,-306.438199
1285.845856,4589.276840,-7994.224174,0.000000
1285.846185,6365.771101,-7105.977043,383.047749
1285.846514,7179.997637,-6809.894666,1149.143247
1285.846844,7920.203579,-5921.647536,1685.410096
1285.847173,8068.244768,-4885.359217,1455.581446
1285.847502,8216.285956,-4293.194464,1149.143247
1285.847831,8364.327145,-4589.276840,1608.800546
1285.848160,8882.471304,-4219.173869,1685.410096
1285.848489,9030.512492,-4589.276840,1378.971896
1285.848818,8438.347739,-5255.462188,1378.971896
1285.849147,8216.285956,-5551.544565,1608.800546
1285.849476,7772.162391,-7328.038826,1378.971896
1285.849805,6661.853478,-7624.121203,1302.362347
1285.850134,5033.400406,-8142.265362,612.876398
1285.850463,4219.173869,-8512.368333,0.000000
1285.850792,4219.173869,-8364.327145,0.000000
1285.851121,4811.338623,-8512.368333,-229.828649
1285.851450,5625.565159,-8290.306550,383.047749
1285.851779,6661.853478,-7179.997637,536.266849
1285.852108,7624.121203,-6143.709319,1072.533697
1285.852437,7994.224174,-6217.729913,1532.190996
1285.852766,7920.203579,-5551.544565,1838.629195
1285.853096,8290.306550,-4737.318029,1378.971896
1285.853425,8512.368333,-4885.359217,1838.629195
1285.853754,9104.533087,-4071.132681,1915.238745
1285.854083,9104.533087,-4589.276840,1378.971896
1285.854412,8290.306550,-6217.729913,2145.067394
1285.854741,7698.141797,-6809.894666,1532.190996
1285.855070,6735.874072,-7402.059420,766.095498
1285.855399,4737.318029,-7476.080014,1302.362347
1285.855728,4071.132681,-8808.450710,153.219100
1285.856057,4293.194464,-9104.533087,76.609550
1285.856386,4663.297435,-8438.347739,229.828649
1285.856715,5921.647536,-7328.038826,153.219100
1285.857044,7105.977043,-6735.874072,612.876398
1285.857373,6513.812290,-6143.709319,689.485948
1285.857702,7328.038826,-6513.812290,1149.143247
1285.858031,7476.080014,-5551.544565,1378.971896
1285.858360,7772.162391,-4959.379811,1532.190996
1285.858689,8068.244768,-4885.359217,1302.362347
1285.859018,8216.285956,-4885.359217,1455.581446
1285.859347,8438.347739,-4737.318029,1608.800546
1285.859677,8586.388927,-5551.544565,2298.286494
1285.860006,8142.265362,-5329.482782,1838.629195
1285.860335,7179.997637,-6809.894666,1685.410096
1285.860664,6217.729913,-7254.018232,1455.581446
1285.860993,5403.503377,-8216.285956,995.924147
1285.861322,4811.338623,-7698.141797,1072.533697
1285.861651,5033.400406,-8512.368333,612.876398
1285.861980,5181.441594,-8290.306550,229.828649
1285.862309,5847.626942,-7624.121203,0.000000
1285.862638,6143.709319,-7772.162391,383.047749
1285.862967,6291.750507,-7476.080014,229.828649
1285.863296,6365.771101,-7254.018232,842.705048
1285.863625,6587.832884,-5921.647536,919.314598
1285.863954,7328.038826,-5033.400406,689.485948
1285.864283,8290.306550,-4589.276840,2068.457845
1285.864612,9992.780217,-4515.256246,1455.581446
1285.864941,9474.636058,-5107.421000,1455.581446
1285.865270,9178.553681,-5255.462188,2374.896044
1285.865599,8734.430116,-5921.647536,1838.629195
1285.865928,7772.162391,-6365.771101,1838.629195
1285.866258,6735.874072,-7105.977043,1532.190996
1285.866587,5773.606348,-8068.244768,766.095498
1285.866916,5329.482782,-7624.121203,689.485948
1285.867245,4959.379811,-7624.121203,0.000000
1285.867574,5033.400406,-7994.224174,153.219100
1285.867903,5773.606348,-7328.038826,842.705048
1285.868232,5995.668130,-7254.018232,919.314598
1285.868561,6143.709319,-6217.729913,919.314598
1285.868890,6365.771101,-5847.626942,1149.143247
1285.869219,6957.935855,-5921.647536,1302.362347
1285.869548,7698.141797,-4663.297435,1149.143247
1285.869877,8438.347739,-4589.276840,1608.800546
1285.870206,9178.553681,-4737.318029,1838.629195
1285.870536,9696.697840,-5255.462188,1991.848295
1285.870865,9474.636058,-5107.421000,2374.896044
1285.871194,8734.430116,-6217.729913,2145.067394
1285.871523,7328.038826,-7105.977043,1915.238745
1285.871852,5995.668130,-7994.224174,689.485948
1285.872181,4293.194464,-8956.491898,-229.828649
1285.872511,3404.947333,-8956.491898,-842.705048
1285.872840,3701.029710,-8808.450710,-766.095498
1285.873169,4515.256246,-8438.347739,-536.266849
1285.873498,6217.729913,-7698.141797,842.705048
1285.873827,6957.935855,-7105.977043,766.095498
1285.874156,7179.997637,-6143.709319,842.705048
1285.874486,7698.141797,-5255.462188,1532.190996
1285.874815,7994.224174,-4441.235652,1685.410096
1285.875144,9918.759623,-4071.132681,1991.848295
1285.875473,10214.842000,-3330.926739,2145.067394
1285.875802,9844.739029,-3923.091493,1838.629195
1285.876131,9178.553681,-4959.379811,2298.286494
1285.876460,8586.388927,-5773.606348,2298.286494
1285.876790,6809.894666,-7476.080014,1455.581446
1285.877119,5181.441594,-8364.327145,766.095498
1285.877448,3997.112087,-8438.347739,0.000000
1285.877777,3256.906145,-9030.512492,-612.876398
1285.878106,4145.153275,-8512.368333,0.000000
1285.878435,5033.400406,-8364.327145,-306.438199
1285.878765,6143.709319,-8290.306550,383.047749
1285.879094,7105.977043,-6291.750507,536.266849
1285.879423,7328.038826,-6661.853478,919.314598
1285.879752,7846.182985,-5107.421000,1302.362347
1285.880081,8586.388927,-4293.194464,1225.752797
1285.880410,9400.615463,-3849.070898,1762.019645
1285.880740,9104.533087,-4145.153275,1532.190996
1285.881069,9178.553681,-5403.503377,1991.848295
1285.881398,8956.491898,-5403.503377,2604.724693
1285.881727,8290.306550,-6291.750507,1838.629195
1285.882056,7550.100608,-7105.977043,2221.676944
1285.882385,6439.791695,-7476.080014,2068.457845
1285.882714,4959.379811,-7846.182985,459.657299
1285.883044,3997.112087,-7846.182985,0.000000
1285.883373,3330.926739,-8586.388927,-612.876398
1285.883702,4515.256246,-8808.450710,0.000000
1285.884031,5329.482782,-8438.347739,229.828649
1285.884360,6143.709319,-8290.306550,612.876398
1285.884689,6735.874072,-6587.832884,842.705048
1285.885019,7328.038826,-6661.853478,1378.971896
1285.885348,7846.182985,-5773.606348,1762.019645
1285.885677,8956.491898,-4367.215058,2068.457845
1285.886006,9696.697840,-3923.091493,1915.238745
1285.886335,9474.636058,-3478.967927,1532.190996
1285.886664,9178.553681,-4811.338623,1685.410096
1285.886994,8882.471304,-5403.503377,1762.019645
1285.887323,7920.203579,-6735.874072,1915.238745
1285.887652,6809.894666,-7624.121203,1685.410096
1285.887981,4737.318029,-7994.224174,383.047749
1285.888310,4071.132681,-8956.491898,229.828649
1285.888639,4219.173869,-9178.553681,0.000000
1285.888968,4515.256246,-7994.224174,-229.828649
1285.889298,5255.462188,-7402.059420,0.000000
1285.889627,6217.729913,-7402.059420,459.657299
1285.889956,6439.791695,-7031.956449,689.485948
1285.890285,7031.956449,-6587.832884,1378.971896
1285.890614,7328.038826,-5847.626942,1685.410096
1285.890943,8660.409521,-4811.338623,1915.238745
1285.891273,8956.491898,-5033.400406,1838.629195
1285.891602,8956.491898,-4515.256246,1838.629195
1285.891931,8512.368333,-4367.215058,1302.362347
1285.892260,8512.368333,-5181.441594,1225.752797
1285.892589,8586.388927,-5551.544565,1838.629195
1285.892918,8142.265362,-6957.935855,2068.457845
1285.893248,7031.956449,-7402.059420,1378.971896
1285.893577,5033.400406,-7920.203579,0.000000
1285.893906,3478.967927,-8660.409521,-842.705048
1285.894235,3552.988522,-9104.533087,-689.485948
1285.894564,4737.318029,-9178.553681,0.000000
1285.894893,5995.668130,-9030.512492,459.657299
1285.895222,6291.750507,-7920.203579,842.705048
1285.895552,7031.956449,-6957.935855,1225.752797
1285.895881,7402.059420,-5847.626942,1455.581446
1285.896210,8216.285956,-4737.318029,1532.190996
1285.896539,8438.347739,-3923.091493,1455.581446
1285.896868,9178.553681,-3330.926739,1838.629195
1285.897197,9770.718434,-3404.947333,1762.019645
1285.897527,9696.697840,-4219.173869,2068.457845
1285.897856,9030.512492,-5477.523971,1991.848295
1285.898185,7846.182985,-6661.853478,2068.457845
1285.898514,6365.771101,-7624.121203,919.314598
1285.898843,4515.256246,-8512.368333,76.609550
1285.899172,3256.906145,-8956.491898,76.609550
1285.899502,3404.947333,-9696.697840,-612.876398
1285.899831,4219.173869,-8956.491898,-459.657299
1285.900160,5403.503377,-8068.244768,0.000000
1285.900489,6883.915261,-7550.100608,383.047749
1285.900818,7402.059420,-6217.729913,1991.848295
1285.901147,7624.121203,-5773.606348,1455.581446
1285.901477,7624.121203,-4885.359217,1838.629195
1285.901806,8438.347739,-4441.235652,1608.800546
1285.902135,9548.656652,-2960.823768,1608.800546
1285.902464,9696.697840,-3627.009116,1838.629195
1285.902793,9696.697840,-4145.153275,2451.505594
1285.903122,9400.615463,-4589.276840,1455.581446
1285.903451,8586.388927,-5329.482782,1838.629195
1285.903781,7105.977043,-7402.059420,1685.410096
1285.904110,5847.626942,-8512.368333,995.924147
1285.904439,4145.153275,-8438.347739,459.657299
1285.904768,3404.947333,-9252.574275,-383.047749
1285.905097,3552.988522,-9252.574275,-383.047749
1285.905426,4737.318029,-8364.327145,0.000000
1285.905756,5773.606348,-9178.553681,306.438199
1285.906085,6513.812290,-7105.977043,842.705048
1285.906414,7105.977043,-6883.915261,1378.971896
1285.906743,8216.285956,-5699.585753,1455.581446
1285.907072,8808.450710,-4367.215058,1915.238745
1285.907401,8660.409521,-4145.153275,1685.410096
1285.907731,9918.759623,-3034.844362,1608.800546
1285.908060,9770.718434,-3701.029710,1685.410096
1285.908389,9992.780217,-4811.338623,1685.410096
1285.908718,8734.430116,-6069.688724,1762.019645
1285.909047,7476.080014,-7476.080014,1838.629195
1285.909376,6365.771101,-7920.203579,766.095498
1285.909705,4219.173869,-7994.224174,1072.533697
1285.910035,3330.926739,-8586.388927,-459.657299
1285.910364,3478.967927,-9178.553681,-766.095498
1285.910693,4293.194464,-8660.409521,-153.219100
1285.911022,5699.585753,-7772.162391,0.000000
1285.911351,6365.771101,-7254.018232,1532.190996
1285.911680,7105.977043,-6661.853478,1608.800546
1285.912010,7476.080014,-6439.791695,1608.800546
1285.912339,8068.244768,-4737.318029,1991.848295
1285.912668,8956.491898,-4071.132681,2068.457845
1285.912997,9474.636058,-3404.947333,1685.410096
1285.913326,9178.553681,-3775.050304,2068.457845
1285.913655,8956.491898,-4811.338623,1378.971896
1285.913985,8882.471304,-5625.565159,1915.238745
1285.914314,8290.306550,-5847.626942,2145.067394
1285.914643,7105.977043,-7179.997637,1302.362347
1285.914972,5773.606348,-8290.306550,306.438199
1285.915301,3923.091493,-9030.512492,0.000000
1285.915630,3034.844362,-9474.636058,-689.485948
1285.915959,3849.070898,-9474.636058,-306.438199
1285.916289,4885.359217,-8512.368333,-612.876398
1285.916618,6069.688724,-8586.388927,229.828649
1285.916947,6735.874072,-7772.162391,1378.971896
1285.917276,7550.100608,-6735.874072,995.924147
1285.917605,7920.203579,-5625.565159,2068.457845
1285.917934,8734.430116,-3701.029710,2374.896044
1285.918264,9622.677246,-3701.029710,2145.067394
1285.918593,9326.594869,-3108.864956,1915.238745
1285.918922,9030.512492,-4145.153275,1991.848295
1285.919251,8660.409521,-4811.338623,1991.848295
1285.919580,8364.327145,-5699.585753,1838.629195
1285.919909,7105.977043,-7031.956449,1991.848295
1285.920239,5847.626942,-7994.224174,995.924147
1285.920568,3701.029710,-9400.615463,-306.438199
1285.920897,2664.741391,-9400.615463,-612.876398
1285.921226,3330.926739,-9474.636058,-689.485948
1285.921555,4811.338623,-8290.306550,0.000000
1285.921884,6143.709319,-7031.956449,1072.533697
1285.922213,7846.182985,-6809.894666,1532.190996
1285.922543,8586.388927,-5995.668130,2145.067394
1285.922872,8734.430116,-5551.544565,1991.848295
1285.923201,8512.368333,-4885.359217,1762.019645
1285.923530,8142.265362,-2738.761985,1302.362347
1285.923859,8882.471304,-3627.009116,995.924147
1285.924188,8882.471304,-4515.256246,1762.019645
1285.924518,9474.636058,-5329.482782,1991.848295
1285.924847,9326.594869,-5699.585753,1915.238745
1285.925176,8216.285956,-6291.750507,1685.410096
1285.925505,6143.709319,-8068.244768,1225.752797
1285.925834,4663.297435,-8290.306550,612.876398
1285.926163,3478.967927,-9400.615463,76.609550
1285.926493,3701.029710,-9474.636058,0.000000
1285.926822,4071.132681,-8660.409521,0.000000
1285.927151,4959.379811,-8142.265362,306.438199
1285.927480,6143.709319,-8068.244768,306.438199
1285.927809,6365.771101,-7179.997637,1455.581446
1285.928138,7254.018232,-6735.874072,995.924147
1285.928467,7624.121203,-5625.565159,1378.971896
1285.928797,8734.430116,-4293.194464,1838.629195
1285.929126,9622.677246,-3701.029710,1838.629195
1285.929455,10436.903782,-3404.947333,2145.067394
1285.929784,9844.739029,-3627.009116,2221.676944
1285.930113,9400.615463,-5033.400406,1838.629195
1285.930442,8216.285956,-5847.626942,1608.800546
1285.930772,7254.018232,-6513.812290,1225.752797
1285.931101,5773.606348,-7624.121203,612.876398
1285.931430,4663.297435,-7846.182985,0.000000
1285.931759,3701.029710,-8956.491898,-306.438199
1285.932088,3923.091493,-8512.368333,-306.438199
1285.932417,4515.256246,-7476.080014,459.657299
1285.932747,5847.626942,-7624.121203,76.609550
1285.933076,6809.894666,-7105.977043,842.705048
1285.933405,7698.141797,-7105.977043,2068.457845
1285.933734,8216.285956,-5995.668130,2221.676944
1285.934063,7994.224174,-5329.482782,1685.410096
1285.934392,8364.327145,-4737.318029,1838.629195
1285.934721,8586.388927,-4367.215058,1225.752797
1285.935051,8586.388927,-4737.318029,1608.800546
1285.935380,8512.368333,-4589.276840,1532.190996
1285.935709,8216.285956,-6069.688724,1685.410096
1285.936038,7624.121203,-6735.874072,1532.190996
1285.936367,5995.668130,-7254.018232,1225.752797
1285.936696,4811.338623,-8660.409521,536.266849
1285.937026,4145.153275,-8808.450710,459.657299
1285.937355,3849.070898,-9104.533087,-459.657299
1285.937684,4071.132681,-9104.533087,-459.657299
1285.938013,5033.400406,-8586.388927,0.000000
1285.938342,6513.812290,-8216.285956,229.828649
1285.938671,7179.997637,-6957.935855,1302.362347
1285.939001,7476.080014,-6513.812290,1762.019645
1285.939330,8216.285956,-5255.462188,2374.896044
1285.939659,8512.368333,-4293.194464,1685.410096
1285.939988,8808.450710,-3478.967927,1838.629195
1285.940317,9178.553681,-3182.885551,2068.457845
1285.940646,8882.471304,-3849.070898,1915.238745
1285.940975,8808.450710,-4885.359217,2068.457845
1285.941305,7772.162391,-6217.729913,1915.238745
1285.941634,7624.121203,-7105.977043,2145.067394
1285.941963,6069.688724,-7994.224174,1072.533697
1285.942292,4811.338623,-9104.533087,153.219100
1285.942621,3849.070898,-8586.388927,-229.828649
1285.942950,3997.112087,-8882.471304,0.000000
1285.943280,5107.421000,-8808.450710,0.000000
1285.943609,6143.709319,-7402.059420,612.876398
1285.943938,7550.100608,-7179.997637,995.924147
1285.944267,7624.121203,-6143.709319,1532.190996
1285.944596,7105.977043,-5403.503377,1991.848295
1285.944925,7772.162391,-4811.338623,1915.238745
1285.945255,8364.327145,-3849.070898,1838.629195
1285.945584,8586.388927,-4219.173869,1149.143247
1285.945913,8734.430116,-4737.318029,1532.190996
1285.946242,8956.491898,-5255.462188,1915.238745
1285.946571,9030.512492,-6587.832884,1762.019645
1285.946900,7846.182985,-7328.038826,1991.848295
1285.947229,6069.688724,-8364.327145,1149.143247
1285.947559,4441.235652,-8808.450710,306.438199
1285.947888,3256.906145,-9474.636058,-306.438199
1285.948217,3552.988522,-9474.636058,-306.438199
1285.948546,4441.235652,-8512.368333,-229.828649
1285.948875,5551.544565,-7994.224174,536.266849
1285.949204,7031.956449,-7105.977043,1072.533697
1285.949534,7328.038826,-6069.688724,1378.971896
1285.949863,7105.977043,-5329.482782,1378.971896
1285.950192,7179.997637,-4811.338623,1302.362347
1285.950521,8438.347739,-3923.091493,1762.019645
1285.950850,9252.574275,-3478.967927,1532.190996
1285.951179,10066.800811,-3701.029710,1685.410096
1285.951509,10140.821405,-4293.194464,2068.457845
1285.951838,9474.636058,-5107.421000,1762.019645
1285.952167,8364.327145,-6439.791695,1225.752797
1285.952496,6661.853478,-7698.141797,689.485948
1285.952825,5181.441594,-8364.327145,0.000000
1285.953154,3923.091493,-9030.512492,0.000000
1285.953483,3627.009116,-9252.574275,-306.438199
1285.953813,4441.235652,-8216.285956,-306.438199
1285.954142,5329.482782,-7550.100608,153.219100
1285.954471,6217.729913,-7328.038826,153.219100
1285.954800,6661.853478,-6883.915261,1455.581446
1285.955129,7624.121203,-6735.874072,2145.067394
1285.955458,7920.203579,-5329.482782,1608.800546
1285.955788,8364.327145,-4441.235652,1685.410096
1285.956117,9104.533087,-4293.194464,1762.019645
1285.956446,9622.677246,-3849.070898,1532.190996
1285.956775,9474.636058,-4515.256246,1685.410096
1285.957104,9400.615463,-5033.400406,1762.019645
1285.957433,8290.306550,-6291.750507,1072.533697
1285.957763,6735.874072,-7846.182985,766.095498
1285.958092,4959.379811,-8512.368333,919.314598
1285.958421,4071.132681,-9474.636058,0.000000
1285.958750,3775.050304,-9178.553681,0.000000
1285.959079,4071.132681,-9400.615463,-383.047749
1285.959408,4737.318029,-8882.471304,76.609550
1285.959738,6291.750507,-7550.100608,229.828649
1285.960067,7105.977043,-6883.915261,689.485948
1285.960396,7624.121203,-5921.647536,1225.752797
1285.960725,8290.306550,-5551.544565,1991.848295
1285.961054,9030.512492,-3701.029710,2451.505594
1285.961383,9992.780217,-3256.906145,2298.286494
1285.961712,9770.718434,-2812.782580,1915.238745
1285.962042,9474.636058,-3108.864956,1762.019645
1285.962371,9474.636058,-4811.338623,1838.629195
1285.962700,8808.450710,-5403.503377,1838.629195
1285.963029,6809.894666,-7105.977043,1455.581446
1285.963358,5625.565159,-7846.182985,1378.971896
1285.963687,4367.215058,-8586.388927,0.000000
1285.964017,3182.885551,-9844.739029,153.219100
1285.964346,3478.967927,-8660.409521,383.047749
1285.964675,4367.215058,-8956.491898,0.000000
1285.965004,5477.523971,-7846.182985,229.828649
1285.965333,6439.791695,-6661.853478,919.314598
1285.965662,7994.224174,-6513.812290,1455.581446
1285.965992,9178.553681,-5329.482782,1915.238745
1285.966321,8512.368333,-5107.421000,2221.676944
1285.966650,8364.327145,-4737.318029,1455.581446
1285.966979,8438.347739,-3997.112087,536.266849
1285.967308,8512.368333,-4367.215058,919.314598
1285.967637,8216.285956,-5625.565159,1455.581446
1285.967966,7920.203579,-6883.915261,1991.848295
1285.968296,7476.080014,-7179.997637,1915.238745
1285.968625,6291.750507,-7772.162391,1991.848295
1285.968954,5329.482782,-8808.450710,1149.143247
1285.969283,4293.194464,-9030.512492,536.266849
1285.969612,3775.050304,-9178.553681,0.000000
1285.969941,4293.194464,-8586.388927,0.000000
1285.970271,5181.441594,-7105.977043,-383.047749
1285.970600,6661.853478,-6587.832884,612.876398
1285.970929,7772.162391,-5773.606348,1532.190996
1285.971258,8216.285956,-5847.626942,1532.190996
1285.971587,8142.265362,-5403.503377,2068.457845
1285.971916,8068.244768,-4515.256246,1378.971896
1285.972246,8068.244768,-4737.318029,1455.581446
1285.972575,8660.409521,-4737.318029,1991.848295
1285.972904,8882.471304,-4959.379811,1302.362347
1285.973233,8512.368333,-5625.565159,2221.676944
1285.973562,7698.141797,-6217.729913,1302.362347
1285.973891,7105.977043,-7254.018232,766.095498
1285.974220,5847.626942,-8068.244768,842.705048
1285.974550,4959.379811,-8216.285956,153.219100
1285.974879,4885.359217,-8808.450710,-383.047749
1285.975208,4663.297435,-8512.368333,153.219100
1285.975537,5477.523971,-7920.203579,76.609550
1285.975866,6291.750507,-6957.935855,306.438199
1285.976195,6809.894666,-5773.606348,1378.971896
1285.976525,7105.977043,-5921.647536,306.438199
1285.976854,7402.059420,-6217.729913,1225.752797
1285.977183,7772.162391,-6069.688724,1838.629195
1285.977512,8512.368333,-5107.421000,1685.410096
1285.977841,7994.224174,-4515.256246,2451.505594
1285.978170,8364.327145,-4885.359217,1608.800546
1285.978500,8438.347739,-5551.544565,1302.362347
1285.978829,8068.244768,-5847.626942,1455.581446
1285.979158,7476.080014,-6883.915261,1532.190996
1285.979487,6661.853478,-7179.997637,1302.362347
1285.979816,5699.585753,-7920.203579,1149.143247
1285.980145,4515.256246,-8438.347739,0.000000
1285.980474,4663.297435,-8882.471304,76.609550
1285.980804,5403.503377,-8586.388927,76.609550
1285.981133,5847.626942,-7328.038826,0.000000
1285.981462,6439.791695,-7402.059420,766.095498
1285.981791,7254.018232,-6365.771101,842.705048
1285.982120,7624.121203,-5847.626942,1149.143247
1285.982449,7772.162391,-5403.503377,1302.362347
1285.982779,8068.244768,-4663.297435,1762.019645
1285.983108,9030.512492,-4071.132681,1302.362347
1285.983437,9400.615463,-3775.050304,1455.581446
1285.983766,9400.615463,-3923.091493,1608.800546
1285.984095,9104.533087,-5255.462188,2068.457845
1285.984424,8364.327145,-5625.565159,1762.019645
1285.984754,7031.956449,-7105.977043,1378.971896
1285.985083,6439.791695,-7254.018232,1225.752797
1285.985412,5329.482782,-7698.141797,1608.800546
1285.985741,4663.297435,-8956.491898,153.219100
1285.986070,4367.215058,-9030.512492,0.000000
1285.986399,4589.276840,-8734.430116,-229.828649
1285.986728,5699.585753,-7550.100608,0.000000
1285.987058,5995.668130,-6809.894666,383.047749
1285.987387,6809.894666,-6809.894666,1072.533697
1285.987716,7476.080014,-5921.647536,1149.143247
1285.988045,7772.162391,-5329.482782,1378.971896
1285.988374,8512.368333,-4515.256246,842.705048
1285.988703,9178.553681,-4219.173869,1378.971896
1285.989033,9474.636058,-4367.215058,1378.971896
1285.989362,9104.533087,-4589.276840,1762.019645
1285.989691,8586.388927,-5699.585753,1991.848295
1285.990020,8216.285956,-6291.750507,1915.238745
1285.990349,7328.038826,-8142.265362,2145.067394
1285.990678,6069.688724,-8290.306550,1608.800546
1285.991008,4811.338623,-8438.347739,383.047749
1285.991337,3256.906145,-8956.491898,-229.828649
1285.991666,3627.009116,-8882.471304,0.000000
1285.991995,4441.235652,-8290.306550,-229.828649
1285.992324,5773.606348,-7550.100608,0.000000
1285.992653,6735.874072,-6365.771101,766.095498
1285.992982,7550.100608,-6587.832884,1225.752797
1285.993312,8290.306550,-5699.585753,2145.067394
1285.993641,8586.388927,-4737.318029,2145.067394
1285.993970,8956.491898,-4367.215058,1762.019645
1285.994299,9400.615463,-3552.988522,2221.676944
1285.994628,9400.615463,-3627.009116,1225.752797
1285.994957,9252.574275,-4737.318029,1838.629195
1285.995287,8142.265362,-5847.626942,1455.581446
1285.995616,7105.977043,-6883.915261,1225.752797
1285.995945,6069.688724,-7105.977043,1149.143247
1285.996274,5033.400406,-8216.285956,689.485948
1285.996603,3775.050304,-8882.471304,0.000000
1285.996932,3627.009116,-8808.450710,-536.266849
1285.997262,4515.256246,-8142.265362,0.000000
1285.997591,5773.606348,-7920.203579,0.000000
1285.997920,6735.874072,-7105.977043,766.095498
1285.998249,7031.956449,-6365.771101,842.705048
1285.998578,7105.977043,-6069.688724,1225.752797
1285.998907,7328.038826,-5921.647536,1838.629195
1285.999236,8290.306550,-4515.256246,1378.971896
1285.999566,8882.471304,-4219.173869,1915.238745
1285.999895,9252.574275,-4737.318029,2145.067394
1286.000224,8586.388927,-4959.379811,1838.629195
1286.000553,7772.162391,-5477.523971,2374.896044
1286.000882,7328.038826,-6809.894666,1838.629195
1286.001211,6735.874072,-7698.141797,1378.971896
1286.001541,5625.565159,-8586.388927,689.485948
1286.001870,4737.318029,-8882.471304,229.828649
1286.002199,4589.276840,-8956.491898,-76.609550
1286.002528,4515.256246,-8660.409521,-612.876398
1286.002857,5107.421000,-8808.450710,-459.657299
1286.003186,6291.750507,-8142.265362,306.438199
1286.003516,7105.977043,-6957.935855,1302.362347
1286.003845,7402.059420,-5995.668130,1302.362347
1286.004174,7994.224174,-5107.421000,1762.019645
1286.004503,8808.450710,-4589.276840,1915.238745
1286.004832,9918.759623,-3330.926739,1991.848295
1286.005161,10955.047942,-3108.864956,2221.676944
1286.005490,10066.800811,-3182.885551,2145.067394
1286.005820,9030.512492,-4515.256246,1915.238745
1286.006149,7920.203579,-6365.771101,1838.629195
1286.006478,6587.832884,-6809.894666,1532.190996
1286.006807,5477.523971,-8216.285956,842.705048
1286.007136,4145.153275,-8660.409521,383.047749
1286.007465,3182.885551,-9104.533087,-459.657299
1286.007795,3478.967927,-9178.553681,-689.485948
1286.008124,4737.318029,-7698.141797,153.219100
1286.008453,5921.647536,-8142.265362,0.000000
1286.008782,6957.935855,-6957.935855,689.485948
1286.009111,7476.080014,-6513.812290,1149.143247
1286.009440,8808.450710,-5921.647536,1608.800546
1286.009770,8512.368333,-4737.318029,1762.019645
1286.010099,8882.471304,-3923.091493,1302.362347
1286.010428,9326.594869,-3775.050304,1378.971896
1286.010757,9474.636058,-4071.132681,1225.752797
1286.011086,9178.553681,-5255.462188,995.924147
1286.011415,8512.368333,-5847.626942,1225.752797
1286.011744,7402.059420,-7698.141797,1838.629195
1286.012074,6143.709319,-8438.347739,1072.533697
1286.012403,4071.132681,-8586.388927,766.095498
1286.012732,3775.050304,-8956.491898,-153.219100
1286.013061,3701.029710,-8956.491898,-76.609550
1286.013390,4737.318029,-9400.615463,536.266849
1286.013719,5995.668130,-7846.182985,229.828649
1286.014049,6957.935855,-7179.997637,995.924147
1286.014378,7328.038826,-6365.771101,2068.457845
1286.014707,7254.018232,-5699.585753,1378.971896
1286.015036,7994.224174,-5329.482782,1762.019645
1286.015365,8734.430116,-4293.194464,1762.019645
1286.015694,8956.491898,-3552.988522,1455.581446
1286.016024,9252.574275,-4145.153275,1762.019645
1286.016353,9474.636058,-4219.173869,1838.629195
1286.016682,8882.471304,-5773.606348,1455.581446
1286.017011,8068.244768,-6069.688724,1685.410096
1286.017340,7031.956449,-7105.977043,1378.971896
1286.017669,5699.585753,-8290.306550,766.095498
1286.017998,4737.318029,-8512.368333,383.047749
1286.018328,4367.215058,-8734.430116,-229.828649
1286.018657,4811.338623,-7994.224174,0.000000
1286.018986,5329.482782,-7105.977043,-76.609550
1286.019315,6735.874072,-7105.977043,536.266849
1286.019644,6957.935855,-6365.771101,919.314598
1286.019973,7179.997637,-6069.688724,1608.800546
1286.020303,7254.018232,-5403.503377,1532.190996
1286.020632,7846.182985,-5107.421000,1685.410096
1286.020961,8142.265362,-4737.318029,1302.362347
1286.021290,8734.430116,-4737.318029,1378.971896
1286.021619,8512.368333,-4959.379811,2068.457845
1286.021948,8660.409521,-5329.482782,1532.190996
1286.022278,8290.306550,-6291.750507,1378.971896
1286.022607,7402.059420,-7105.977043,1915.238745
1286.022936,6217.729913,-8142.265362,1378.971896
1286.023265,4663.297435,-8068.244768,459.657299
1286.023594,3701.029710,-8586.388927,0.000000
1286.023923,3923.091493,-9400.615463,-229.828649
1286.024252,4811.338623,-8290.306550,-306.438199
1286.024582,5551.544565,-8142.265362,0.000000
1286.024911,5995.668130,-7994.224174,536.266849
1286.025240,6587.832884,-6957.935855,919.314598
1286.025569,7105.977043,-6513.812290,842.705048
1286.025898,7920.203579,-4885.359217,1455.581446
1286.026227,9030.512492,-4663.297435,1991.848295
1286.026557,10584.944971,-3775.050304,2604.724693
1286.026886,10881.027347,-2886.803174,2528.115143
1286.027215,9844.739029,-3330.926739,2528.115143
1286.027544,9178.553681,-3552.988522,1915.238745
1286.027873,7994.224174,-5551.544565,1608.800546
1286.028202,6661.853478,-7254.018232,1762.019645
1286.028532,4959.379811,-8290.306550,842.705048
1286.028861,3775.050304,-8808.450710,153.219100
1286.029190,2886.803174,-8734.430116,-689.485948
1286.029519,3775.050304,-8882.471304,-612.876398
1286.029848,4959.379811,-8512.368333,0.000000
1286.030177,5921.647536,-8364.327145,536.266849
1286.030506,6661.853478,-7920.203579,919.314598
1286.030836,7624.121203,-5551.544565,919.314598
1286.031165,7772.162391,-5551.544565,1455.581446
1286.031494,8512.368333,-5625.565159,1378.971896
1286.031823,8956.491898,-3627.009116,1762.019645
1286.032152,9548.656652,-4071.132681,1838.629195
1286.032481,10140.821405,-3552.988522,2068.457845
1286.032811,9548.656652,-3923.091493,1532.190996
1286.033140,8216.285956,-6365.771101,1915.238745
1286.033469,7254.018232,-7105.977043,1915.238745
1286.033798,5699.585753,-8438.347739,1915.238745
1286.034127,4219.173869,-8808.450710,459.657299
1286.034456,3552.988522,-9326.594869,-612.876398
1286.034786,3404.947333,-9844.739029,-1072.533697
1286.035115,3997.112087,-9400.615463,-459.657299
1286.035444,4811.338623,-9400.615463,0.000000
1286.035773,6513.812290,-7328.038826,383.047749
1286.036102,7105.977043,-6587.832884,1149.143247
1286.036431,7772.162391,-6365.771101,1608.800546
1286.036760,8142.265362,-4441.235652,1532.190996
1286.037090,8734.430116,-4737.318029,2068.457845
1286.037419,9844.739029,-3775.050304,1455.581446
1286.037748,9992.780217,-2812.782580,1685.410096
1286.038077,10140.821405,-3627.009116,2068.457845
1286.038406,9400.615463,-5033.400406,1991.848295
1286.038735,8068.244768,-6587.832884,1608.800546
1286.039065,6809.894666,-7254.018232,1378.971896
1286.039394,5107.421000,-8364.327145,-306.438199
1286.039723,3849.070898,-8882.471304,0.000000
1286.040052,4071.132681,-8586.388927,-919.314598
1286.040381,3923.091493,-8956.491898,-842.705048
1286.040710,5033.400406,-7846.182985,0.000000
1286.041040,6661.853478,-7254.018232,919.314598
1286.041369,7994.224174,-6217.729913,2145.067394
1286.041698,8438.347739,-4885.359217,1838.629195
1286.042027,8142.265362,-4959.379811,2145.067394
1286.042356,8142.265362,-4145.153275,1685.410096
1286.042685,8808.450710,-3478.967927,1378.971896
1286.043014,9178.553681,-3627.009116,1838.629195
1286.043344,9622.677246,-4145.153275,1915.238745
1286.043673,9104.533087,-5625.565159,1838.629195
1286.044002,7698.141797,-6883.915261,1532.190996
1286.044331,5699.585753,-8216.285956,1608.800546
1286.044660,4737.318029,-9178.553681,0.000000
1286.044989,3552.988522,-9178.553681,-536.266849
1286.045319,3108.864956,-9548.656652,-612.876398
1286.045648,3997.112087,-9770.718434,-536.266849
1286.045977,4811.338623,-8956.491898,229.828649
1286.046306,5847.626942,-9030.512492,459.657299
1286.046635,6735.874072,-6143.709319,459.657299
1286.046964,7105.977043,-6587.832884,1225.752797
1286.047294,7624.121203,-5921.647536,2145.067394
1286.047623,8586.388927,-4367.215058,2068.457845
1286.047952,9622.677246,-3775.050304,2298.286494
1286.048281,9918.759623,-2812.782580,2068.457845
1286.048610,9400.615463,-3627.009116,1685.410096
1286.048939,9178.553681,-3775.050304,1915.238745
1286.049268,8512.368333,-5255.462188,1378.971896
1286.049598,7550.100608,-7179.997637,2298.286494
1286.049927,6365.771101,-7328.038826,1532.190996
1286.050256,4885.359217,-8586.388927,76.609550
1286.050585,3923.091493,-8068.244768,-229.828649
1286.050914,3404.947333,-9030.512492,-383.047749
1286.051243,4441.235652,-8956.491898,-229.828649
1286.051573,5255.462188,-7105.977043,0.000000
1286.051902,5921.647536,-7476.080014,1149.143247
1286.052231,7846.182985,-5699.585753,1455.581446
1286.052560,8142.265362,-5995.668130,1991.848295
1286.052889,8290.306550,-5329.482782,2374.896044
1286.053218,8808.450710,-4219.173869,1685.410096
1286.053548,8660.409521,-3478.967927,2145.067394
1286.053877,9326.594869,-4071.132681,1532.190996
1286.054206,9474.636058,-4737.318029,2068.457845
1286.054535,9252.574275,-5181.441594,1608.800546
1286.054864,8216.285956,-6439.791695,1532.190996
1286.055193,6439.791695,-7105.977043,1685.410096
1286.055522,4811.338623,-8290.306550,459.657299
1286.055852,3330.926739,-9400.615463,0.000000
1286.056181,2516.700203,-9844.739029,-689.485948
1286.056510,3478.967927,-9844.739029,-1149.143247
1286.056839,4663.297435,-8956.491898,0.000000
1286.057168,5773.606348,-8216.285956,383.047749
1286.057497,7031.956449,-7476.080014,995.924147
1286.057827,7402.059420,-6291.750507,1685.410096
1286.058156,8068.244768,-5181.441594,1991.848295
1286.058485,8734.430116,-4219.173869,1532.190996
1286.058814,9104.533087,-4145.153275,1915.238745
1286.059143,9474.636058,-3404.947333,1762.019645
1286.059472,9844.739029,-3923.091493,1532.190996
1286.059802,9400.615463,-3923.091493,1838.629195
1286.060131,8660.409521,-5403.503377,1455.581446
1286.060460,7698.141797,-6513.812290,1532.190996
1286.060789,5921.647536,-7698.141797,1225.752797
1286.061118,4589.276840,-7920.203579,153.219100
1286.061447,3256.906145,-8438.347739,-229.828649
1286.061776,3923.091493,-8438.347739,-1149.143247
1286.062106,4737.318029,-8216.285956,-459.657299
1286.062435,6143.709319,-7254.018232,459.657299
1286.062764,8142.265362,-7031.956449,1225.752797
1286.063093,8290.306550,-6291.750507,1915.238745
1286.063422,7994.224174,-5699.585753,2068.457845
1286.063751,8142.265362,-4737.318029,1455.581446
1286.064081,8364.327145,-4071.132681,919.314598
1286.064410,8734.430116,-3775.050304,1149.143247
1286.064739,9030.512492,-4663.297435,1608.800546
1286.065068,9622.677246,-4737.318029,1991.848295
1286.065397,9104.533087,-5477.523971,1762.019645
1286.065726,7402.059420,-6661.853478,1991.848295
1286.066056,5699.585753,-8290.306550,995.924147
1286.066385,4071.132681,-8734.430116,153.219100
1286.066714,3552.988522,-9326.594869,-766.095498
1286.067043,3108.864956,-9400.615463,-766.095498
1286.067372,3552.988522,-9622.677246,-383.047749
1286.067701,5625.565159,-8660.409521,229.828649
1286.068030,6365.771101,-7920.203579,689.485948
1286.068360,6809.894666,-7105.977043,766.095498
1286.068689,7476.080014,-6439.791695,2298.286494
1286.069018,8068.244768,-5107.421000,1532.190996
1286.069347,8438.347739,-4589.276840,1991.848295
1286.069676,9326.594869,-3256.906145,1915.238745
1286.070005,10214.842000,-2664.741391,1915.238745
1286.070334,10584.944971,-3775.050304,2298.286494
1286.070664,9548.656652,-4441.235652,2145.067394
1286.070993,8068.244768,-5181.441594,1532.190996
1286.071322,6513.812290,-7328.038826,919.314598
1286.071651,5033.400406,-8660.409521,1302.362347
1286.071980,3997.112087,-8956.491898,0.000000
1286.072309,3256.906145,-9104.533087,-229.828649
1286.072638,3775.050304,-9030.512492,-229.828649
1286.072967,4737.318029,-8586.388927,-459.657299
1286.073296,5699.585753,-7179.997637,689.485948
1286.073625,7105.977043,-7550.100608,1149.143247
1286.073954,7920.203579,-6291.750507,1455.581446
1286.074283,8068.244768,-4885.359217,1608.800546
1286.074612,8364.327145,-4367.215058,1455.581446
1286.074941,9178.553681,-4145.153275,1685.410096
1286.075270,8956.491898,-3997.112087,1532.190996
1286.075599,9178.553681,-4441.235652,1532.190996
1286.075928,9104.533087,-4959.379811,1915.238745
1286.076257,9326.594869,-5847.626942,1838.629195
1286.076586,7550.100608,-7179.997637,1608.800546
1286.076915,5773.606348,-8438.347739,1225.752797
1286.077244,4589.276840,-8956.491898,383.047749
1286.077573,3701.029710,-9104.533087,-306.438199
1286.077902,3330.926739,-8882.471304,-459.657299
1286.078231,3997.112087,-9030.512492,-306.438199
1286.078560,5329.482782,-8882.471304,306.438199
1286.078889,6735.874072,-7698.141797,842.705048
1286.079218,7254.018232,-6587.832884,1532.190996
1286.079547,7550.100608,-5921.647536,1608.800546
1286.079876,8142.265362,-4959.379811,1991.848295
1286.080206,8586.388927,-4515.256246,1685.410096
1286.080535,9178.553681,-4145.153275,1685.410096
1286.080864,9326.594869,-3404.947333,2298.286494
1286.081193,9252.574275,-4811.338623,1608.800546
1286.081522,8586.388927,-5625.565159,1991.848295
1286.081851,7328.038826,-6439.791695,995.924147
1286.082180,6439.791695,-8290.306550,995.924147
1286.082509,5033.400406,-8364.327145,689.485948
1286.082838,3923.091493,-9104.533087,-229.828649
1286.083167,3775.050304,-8364.327145,-459.657299
1286.083496,4515.256246,-8290.306550,-766.095498
1286.083825,6069.688724,-7920.203579,383.047749
1286.084154,6809.894666,-6661.853478,995.924147
1286.084483,7920.203579,-6439.791695,1455.581446
1286.084812,8142.265362,-5403.503377,1915.238745
1286.085141,8586.388927,-5033.400406,1762.019645
1286.085470,8216.285956,-4737.318029,1762.019645
1286.085799,8364.327145,-4071.132681,1532.190996
1286.086128,8512.368333,-4663.297435,1762.019645
1286.086457,8956.491898,-4515.256246,1838.629195
1286.086786,9326.594869,-5255.462188,3140.991542
1286.087115,8734.430116,-5847.626942,2374.896044
1286.087444,7402.059420,-7328.038826,1838.629195
1286.087773,5625.565159,-8364.327145,689.485948
1286.088102,3849.070898,-8364.327145,-306.438199
1286.088431,3256.906145,-9474.636058,-229.828649
1286.088760,3849.070898,-9548.656652,-76.609550
1286.089089,4811.338623,-9252.574275,0.000000
1286.089419,5995.668130,-8660.409521,612.876398
1286.089748,6883.915261,-7994.224174,306.438199
1286.090077,7105.977043,-6661.853478,1149.143247
1286.090406,7105.977043,-6069.688724,1532.190996
1286.090735,7920.203579,-5181.441594,1455.581446
1286.091064,8512.368333,-4737.318029,1685.410096
1286.091393,9030.512492,-4219.173869,2145.067394
1286.091722,9474.636058,-3997.112087,1762.019645
1286.092051,9548.656652,-4367.215058,1915.238745
1286.092380,8882.471304,-4885.359217,1991.848295
1286.092709,7698.141797,-6069.688724,1685.410096
1286.093038,6735.874072,-7105.977043,1149.143247
1286.093367,4959.379811,-7920.203579,229.828649
1286.093696,4145.153275,-8512.368333,0.000000
1286.094025,3923.091493,-8438.347739,-383.047749
1286.094354,4441.235652,-8438.347739,766.095498
1286.094683,5551.544565,-8216.285956,459.657299
1286.095012,6587.832884,-7105.977043,842.705048
1286.095341,6957.935855,-7179.997637,1455.581446
1286.095670,7698.141797,-5625.565159,1608.800546
1286.095999,7328.038826,-4589.276840,2145.067394
1286.096328,8364.327145,-4589.276840,1532.190996
1286.096657,8734.430116,-4293.194464,1762.019645
1286.096986,9104.533087,-3849.070898,1378.971896
1286.097315,9548.656652,-4515.256246,1149.143247
1286.097644,9178.553681,-5699.585753,1608.800546
1286.097973,8808.450710,-6217.729913,2374.896044
1286.098302,7772.162391,-7698.141797,1991.848295
1286.098632,5773.606348,-7994.224174,995.924147
1286.098961,3701.029710,-7846.182985,153.219100
1286.099290,3849.070898,-8734.430116,-612.876398
1286.099619,3775.050304,-8438.347739,-383.047749
1286.099948,4737.318029,-8512.368333,0.000000
1286.100277,5921.647536,-8438.347739,536.266849
1286.100606,7105.977043,-7402.059420,1762.019645
1286.100935,7254.018232,-6439.791695,1455.581446
1286.101264,7994.224174,-6069.688724,1838.629195
1286.101593,8956.491898,-5107.421000,2681.334243
1286.101922,8882.471304,-4219.173869,1455.581446
1286.102251,8808.450710,-3627.009116,1225.752797
1286.102580,8512.368333,-3701.029710,1225.752797
1286.102909,8808.450710,-5551.544565,1149.143247
1286.103238,8068.244768,-6217.729913,1685.410096
1286.103567,6587.832884,-7179.997637,1608.800546
1286.103896,5329.482782,-8290.306550,842.705048
1286.104225,4589.276840,-8586.388927,229.828649
1286.104554,3997.112087,-9474.636058,-229.828649
1286.104883,4737.318029,-8290.306550,0.000000
1286.105212,5551.544565,-7476.080014,0.000000
1286.105541,6809.894666,-6809.894666,612.876398
1286.105870,7846.182985,-5699.585753,1378.971896
1286.106199,8142.265362,-6217.729913,1991.848295
1286.106528,8364.327145,-5107.421000,2145.067394
1286.106857,7846.182985,-5181.441594,1532.190996
1286.107186,7254.018232,-4589.276840,1149.143247
1286.107515,7328.038826,-4663.297435,842.705048
1286.107845,7402.059420,-5107.421000,1608.800546
1286.108174,7920.203579,-5699.585753,1455.581446
1286.108503,7846.182985,-6661.853478,1608.800546
1286.108832,7624.121203,-7031.956449,2298.286494
1286.109161,6957.935855,-7920.203579,1532.190996
1286.109490,5403.503377,-8364.327145,842.705048
1286.109819,4959.379811,-8142.265362,229.828649
1286.110148,4811.338623,-8512.368333,0.000000
1286.110477,5107.421000,-7772.162391,0.000000
1286.110806,5773.606348,-7476.080014,536.266849
1286.111135,7402.059420,-7550.100608,689.485948
1286.111464,7920.203579,-6735.874072,919.314598
1286.111793,6957.935855,-6069.688724,1225.752797
1286.112122,7105.977043,-5995.668130,1455.581446
1286.112451,6661.853478,-4589.276840,1149.143247
1286.112780,7698.141797,-4663.297435,995.924147
1286.113109,8216.285956,-4145.153275,1455.581446
1286.113438,9474.636058,-4293.194464,1225.752797
1286.113767,9474.636058,-5181.441594,1915.238745
1286.114096,8290.306550,-5995.668130,2068.457845
1286.114425,7402.059420,-7254.018232,1685.410096
1286.114754,6291.750507,-8142.265362,1149.143247
1286.115083,4885.359217,-8586.388927,689.485948
1286.115412,4737.318029,-7994.224174,459.657299
1286.115741,4737.318029,-7846.182985,0.000000
1286.116070,5255.462188,-7994.224174,383.047749
1286.116399,6143.709319,-7105.977043,689.485948
1286.116728,7105.977043,-6809.894666,1149.143247
1286.117058,7846.182985,-6291.750507,842.705048
1286.117387,7105.977043,-5995.668130,1225.752797
1286.117716,7105.977043,-5847.626942,1072.533697
1286.118045,7550.100608,-4885.359217,1302.362347
1286.118374,8142.265362,-4811.338623,1072.533697
1286.118703,8882.471304,-4811.338623,1302.362347
1286.119032,8808.450710,-5107.421000,995.924147
1286.119361,8660.409521,-6217.729913,1302.362347
1286.119690,8290.306550,-6883.915261,1915.238745
1286.120019,7772.162391,-7328.038826,1838.629195
1286.120348,6439.791695,-7624.121203,1302.362347
1286.120677,5033.400406,-7476.080014,229.828649
1286.121006,4293.194464,-7994.224174,0.000000
1286.121335,4737.318029,-8068.244768,-306.438199
1286.121664,5255.462188,-8068.244768,306.438199
1286.121993,5477.523971,-7476.080014,153.219100
1286.122322,6217.729913,-7105.977043,383.047749
1286.122651,6809.894666,-6809.894666,919.314598
1286.122980,7328.038826,-6439.791695,1149.143247
1286.123309,8068.244768,-4737.318029,2068.457845
1286.123638,9178.553681,-4441.235652,1838.629195
1286.123967,9992.780217,-4071.132681,1532.190996
1286.124296,9622.677246,-4219.173869,2145.067394
1286.124625,9474.636058,-5181.441594,1762.019645
1286.124954,8438.347739,-5625.565159,1532.190996
1286.125283,6809.894666,-7179.997637,1378.971896
1286.125612,5921.647536,-7994.224174,1149.143247
1286.125941,5255.462188,-8734.430116,919.314598
1286.126271,4737.318029,-8808.450710,0.000000
1286.126600,4737.318029,-8364.327145,-306.438199
1286.126929,5255.462188,-7550.100608,0.000000
1286.127258,6143.709319,-6883.915261,0.000000
1286.127587,6439.791695,-6365.771101,1225.752797
1286.127916,7328.038826,-5995.668130,1149.143247
1286.128245,7624.121203,-5255.462188,1149.143247
1286.128574,7550.100608,-5403.503377,995.924147
1286.128903,7846.182985,-5033.400406,1685.410096
1286.129232,8808.450710,-4293.194464,1608.800546
1286.129561,9178.553681,-4663.297435,1762.019645
1286.129890,8956.491898,-4811.338623,2298.286494
1286.130219,8438.347739,-5625.565159,1838.629195
1286.130548,7402.059420,-6291.750507,1838.629195
1286.130877,6809.894666,-7328.038826,1762.019645
1286.131206,5773.606348,-8290.306550,1302.362347
1286.131535,4663.297435,-8438.347739,612.876398
1286.131864,4145.153275,-8808.450710,-76.609550
1286.132193,4663.297435,-8956.491898,0.000000
1286.132522,4885.359217,-8438.347739,76.609550
1286.132851,5995.668130,-8142.265362,306.438199
1286.133180,7105.977043,-6661.853478,766.095498
1286.133509,7179.997637,-5699.585753,1072.533697
1286.133838,7624.121203,-4959.379811,1302.362347
1286.134167,8512.368333,-4811.338623,1608.800546
1286.134496,9104.533087,-4441.235652,1838.629195
1286.134825,9104.533087,-4071.132681,1915.238745
1286.135154,9548.656652,-5107.421000,2145.067394
1286.135483,8882.471304,-5921.647536,2068.457845
1286.135813,7550.100608,-6735.874072,1991.848295
1286.136142,5995.668130,-7328.038826,1149.143247
1286.136471,4885.359217,-7624.121203,76.609550
1286.136800,4293.194464,-8660.409521,536.266849
1286.137129,3849.070898,-8808.450710,459.657299
1286.137458,4589.276840,-9178.553681,229.828649
1286.137787,5403.503377,-8512.368333,1072.533697
1286.138116,5995.668130,-7179.997637,842.705048
1286.138445,7105.977043,-7179.997637,766.095498
1286.138774,7550.100608,-5403.503377,1532.190996
1286.139103,7624.121203,-5551.544565,1149.143247
1286.139432,8068.244768,-4885.359217,1149.143247
1286.139761,8068.244768,-3330.926739,1685.410096
1286.140090,8956.491898,-4515.256246,1455.581446
1286.140419,9400.615463,-4663.297435,1915.238745
1286.140748,9030.512492,-5181.441594,1455.581446
1286.141077,8290.306550,-6291.750507,1762.019645
1286.141406,7328.038826,-6513.812290,2145.067394
1286.141735,7105.977043,-7698.141797,1532.190996
1286.142064,5921.647536,-8068.244768,919.314598
1286.142393,4737.318029,-8586.388927,383.047749
1286.142722,4219.173869,-8882.471304,-306.438199
1286.143051,4663.297435,-8808.450710,-383.047749
1286.143380,5329.482782,-8142.265362,76.609550
1286.143709,6143.709319,-7328.038826,612.876398
1286.144038,7105.977043,-6439.791695,1072.533697
1286.144367,7698.141797,-5921.647536,1532.190996
1286.144696,7624.121203,-5329.482782,1762.019645
1286.145026,8142.265362,-4737.318029,1608.800546
1286.145355,8734.430116,-4367.215058,1838.629195
1286.145684,8290.306550,-4293.194464,1608.800546
1286.146013,8734.430116,-4885.359217,1149.143247
1286.146342,8438.347739,-5699.585753,1378.971896
1286.146671,7476.080014,-7105.977043,1455.581446
1286.147000,7105.977043,-7328.038826,1838.629195
1286.147329,5921.647536,-7772.162391,1378.971896
1286.147658,5181.441594,-8068.244768,612.876398
1286.147987,4219.173869,-8216.285956,0.000000
1286.148316,4589.276840,-8586.388927,-229.828649
1286.148645,5033.400406,-7994.224174,306.438199
1286.148974,6217.729913,-6735.874072,536.266849
1286.149303,7105.977043,-6587.832884,995.924147
1286.149632,7476.080014,-5847.626942,1225.752797
1286.149961,7772.162391,-5181.441594,1455.581446
1286.150290,8364.327145,-4811.338623,1455.581446
1286.150619,8734.430116,-4071.132681,1149.143247
1286.150948,8734.430116,-3627.009116,1302.362347
1286.151277,8882.471304,-4293.194464,1302.362347
1286.151606,8586.388927,-4737.318029,1608.800546
1286.151935,9104.533087,-6809.894666,1302.362347
1286.152264,8216.285956,-7476.080014,2451.505594
1286.152593,7179.997637,-7624.121203,1838.629195
1286.152922,5329.482782,-8364.327145,766.095498
1286.153251,3627.009116,-8216.285956,229.828649
1286.153580,3404.947333,-9178.553681,-536.266849
1286.153909,3997.112087,-9326.594869,-689.485948
1286.154239,4885.359217,-8808.450710,0.000000
1286.154568,5921.647536,-8290.306550,383.047749
1286.154897,7031.956449,-7105.977043,383.047749
1286.155226,7402.059420,-6587.832884,1378.971896
1286.155555,7846.182985,-5255.462188,1225.752797
1286.155884,8438.347739,-4367.215058,1532.190996
1286.156213,9326.594869,-3256.906145,1225.752797
1286.156542,9696.697840,-3627.009116,1838.629195
1286.156871,9696.697840,-4145.153275,1991.848295
1286.157200,9326.594869,-5033.400406,1991.848295
1286.157529,7772.162391,-6735.874072,1838.629195
1286.157858,6587.832884,-7105.977043,1149.143247
1286.158187,5107.421000,-8438.347739,612.876398
1286.158516,4441.235652,-8882.471304,536.266849
1286.158845,4145.153275,-8216.285956,0.000000
1286.159174,4219.173869,-8438.347739,-153.219100
1286.159503,5477.523971,-7920.203579,306.438199
1286.159832,6365.771101,-7105.977043,766.095498
1286.160161,7105.977043,-6291.750507,612.876398
1286.160490,7254.018232,-5625.565159,1302.362347
1286.160819,7624.121203,-5477.523971,1072.533697
1286.161148,8438.347739,-5255.462188,1532.190996
1286.161477,9178.553681,-3997.112087,1532.190996
1286.161806,9548.656652,-3627.009116,995.924147
1286.162135,9918.759623,-4367.215058,1838.629195
1286.162464,9474.636058,-5255.462188,2298.286494
1286.162793,7994.224174,-6291.750507,1302.362347
1286.163122,6439.791695,-7846.182985,1225.752797
1286.163452,5403.503377,-8734.430116,842.705048
1286.163781,4367.215058,-8956.491898,229.828649
1286.164110,4071.132681,-9400.615463,0.000000
1286.164439,4071.132681,-9992.780217,0.000000
1286.164768,4441.235652,-9104.533087,-153.219100
1286.165097,4737.318029,-8512.368333,76.609550
1286.165426,5625.565159,-7624.121203,766.095498
1286.165755,6735.874072,-6809.894666,842.705048
1286.166084,7550.100608,-5995.668130,1378.971896
1286.166413,8216.285956,-5033.400406,2068.457845
1286.166742,9326.594869,-4293.194464,2374.896044
1286.167071,10436.903782,-3108.864956,2451.505594
1286.167400,10066.800811,-3701.029710,1838.629195
1286.167729,9178.553681,-4589.276840,1838.629195
1286.168058,7920.203579,-5551.544565,1608.800546
1286.168387,6661.853478,-6587.832884,1072.533697
1286.168716,5773.606348,-7476.080014,1378.971896
1286.169049,4959.379811,-7698.141797,536.266849
1286.169378,4737.318029,-8142.265362,0.000000
1286.169707,4293.194464,-8512.368333,153.219100
1286.170036,5329.482782,-8956.491898,0.000000
1286.170365,5921.647536,-7624.121203,76.609550
1286.170694,6809.894666,-6513.812290,459.657299
1286.171023,7476.080014,-6513.812290,995.924147
1286.171353,8068.244768,-5773.606348,2298.286494
1286.171682,8956.491898,-5033.400406,1991.848295
1286.172011,8660.409521,-4367.215058,1915.238745
1286.172340,8660.409521,-3701.029710,1762.019645
1286.172669,8734.430116,-3775.050304,1225.752797
1286.172998,7920.203579,-4959.379811,1762.019645
1286.173327,7624.121203,-5329.482782,2145.067394
1286.173657,7254.018232,-5699.585753,1378.971896
1286.173986,7254.018232,-7476.080014,1685.410096
1286.174315,6291.750507,-7920.203579,1608.800546
1286.174644,5625.565159,-7994.224174,0.000000
1286.174973,4811.338623,-8882.471304,306.438199
1286.175302,3923.091493,-9178.553681,-459.657299
1286.175631,4293.194464,-9474.636058,-766.095498
1286.175960,5921.647536,-8142.265362,689.485948
1286.176290,6957.935855,-8512.368333,842.705048
1286.176619,7402.059420,-7476.080014,1762.019645
1286.176948,7624.121203,-6217.729913,1378.971896
1286.177277,8142.265362,-4737.318029,919.314598
1286.177606,7994.224174,-3923.091493,2221.676944
1286.177935,8882.471304,-3627.009116,1302.362347
1286.178264,9474.636058,-3552.988522,1302.362347
1286.178594,9104.533087,-4589.276840,1685.410096
1286.178923,8956.491898,-5403.503377,1532.190996
1286.179252,8290.306550,-6661.853478,2068.457845
1286.179581,7031.956449,-7772.162391,1685.410096
1286.179910,5255.462188,-8586.388927,459.657299
1286.180239,4071.132681,-8882.471304,-229.828649
1286.180568,3775.050304,-8068.244768,-766.095498
1286.180898,4367.215058,-8586.388927,-459.657299
1286.181227,5625.565159,-7698.141797,0.000000
1286.181556,6735.874072,-7179.997637,919.314598
1286.181885,7550.100608,-6883.915261,1225.752797
1286.182214,7920.203579,-5921.647536,1225.752797
1286.182543,6957.935855,-6069.688724,1225.752797
1286.182872,7105.977043,-5329.482782,689.485948
1286.183202,7994.224174,-4293.194464,1225.752797
1286.183531,9252.574275,-4071.132681,1762.019645
1286.183860,9474.636058,-4663.297435,1762.019645
1286.184189,9696.697840,-5107.421000,2145.067394
1286.184518,9252.574275,-6069.688724,1838.629195
1286.184847,8068.244768,-6291.750507,1838.629195
1286.185176,6143.709319,-7328.038826,1532.190996
1286.185506,5181.441594,-7846.182985,0.000000
1286.185835,4071.132681,-8512.368333,0.000000
1286.186164,4071.132681,-8882.471304,-383.047749
1286.186493,4959.379811,-8956.491898,-536.266849
1286.186822,5699.585753,-8364.327145,536.266849
1286.187151,6217.729913,-7846.182985,842.705048
1286.187480,6587.832884,-7105.977043,919.314598
1286.187809,7031.956449,-5921.647536,1608.800546
1286.188139,7846.182985,-4515.256246,1838.629195
1286.188468,8956.491898,-4145.153275,2068.457845
1286.188797,9992.780217,-3108.864956,2374.896044
1286.189126,10066.800811,-2960.823768,1608.800546
1286.189455,9474.636058,-3997.112087,2145.067394
1286.189784,8438.347739,-5403.503377,1532.190996
1286.190113,7402.059420,-7920.203579,1685.410096
1286.190443,6143.709319,-7402.059420,1302.362347
1286.190772,4589.276840,-7994.224174,0.000000
1286.191101,4219.173869,-8660.409521,-689.485948
1286.191430,3923.091493,-8956.491898,-1072.533697
1286.191759,4219.173869,-9178.553681,-766.095498
1286.192088,5107.421000,-8438.347739,0.000000
1286.192417,6217.729913,-7698.141797,459.657299
1286.192747,6957.935855,-7402.059420,1072.533697
1286.193076,6587.832884,-6661.853478,2145.067394
1286.193405,7105.977043,-6069.688724,1762.019645
1286.193734,8438.347739,-4219.173869,1149.143247
1286.194063,9104.533087,-3182.885551,1225.752797
1286.194392,9400.615463,-3627.009116,1838.629195
1286.194721,9844.739029,-3997.112087,2145.067394
1286.195051,9474.636058,-5403.503377,2374.896044
1286.195380,8290.306550,-6587.832884,1838.629195
1286.195709,6513.812290,-8068.244768,2068.457845
1286.196038,4885.359217,-8660.409521,1072.533697
1286.196367,3701.029710,-9326.594869,0.000000
1286.196696,3034.844362,-9548.656652,-689.485948
1286.197025,3256.906145,-9548.656652,-995.924147
1286.197354,4737.318029,-9400.615463,0.000000
1286.197684,6217.729913,-7846.182985,842.705048
1286.198013,7254.018232,-7179.997637,1149.143247
1286.198342,7772.162391,-5773.606348,1149.143247
1286.198671,8068.244768,-4737.318029,2068.457845
1286.199000,8882.471304,-4293.194464,1608.800546
1286.199329,9474.636058,-3404.947333,2374.896044
1286.199658,10066.800811,-2294.638420,2068.457845
1286.199988,10066.800811,-3034.844362,1838.629195
1286.200317,9474.636058,-3997.112087,1838.629195
1286.200646,8364.327145,-6069.688724,2374.896044
1286.200975,7698.141797,-6957.935855,1685.410096
1286.201304,6217.729913,-7402.059420,612.876398
1286.201633,3849.070898,-8660.409521,383.047749
1286.201962,2886.803174,-9030.512492,-536.266849
1286.202292,3034.844362,-9770.718434,-766.095498
1286.202621,4293.194464,-8734.430116,-689.485948
1286.202950,5625.565159,-7846.182985,76.609550
1286.203279,7550.100608,-7698.141797,1532.190996
1286.203608,7698.141797,-6217.729913,1838.629195
1286.203937,7402.059420,-6513.812290,1838.629195
1286.204266,7624.121203,-5033.400406,1532.190996
1286.204596,8290.306550,-4663.297435,1378.971896
1286.204925,9844.739029,-4071.132681,1302.362347
1286.205254,9992.780217,-3330.926739,1685.410096
1286.205583,9918.759623,-5033.400406,1991.848295
1286.205912,9474.636058,-5033.400406,1991.848295
1286.206241,8438.347739,-6439.791695,2145.067394
1286.206570,6809.894666,-7698.141797,1455.581446
1286.206900,4959.379811,-8290.306550,76.609550
1286.207229,3404.947333,-9474.636058,-842.705048
1286.207558,3404.947333,-9178.553681,-612.876398
1286.207887,3775.050304,-9252.574275,306.438199
1286.208216,5551.544565,-8808.450710,0.000000
1286.208545,6587.832884,-7328.038826,766.095498
1286.208874,6883.915261,-6957.935855,1225.752797
1286.209203,7698.141797,-6069.688724,2298.286494
1286.209533,8290.306550,-5329.482782,2451.505594
1286.209862,8956.491898,-4219.173869,1991.848295
1286.210191,9400.615463,-3256.906145,1762.019645
1286.210520,9992.780217,-2960.823768,2068.457845
1286.210849,10066.800811,-4293.194464,1685.410096
1286.211178,8882.471304,-5477.523971,1608.800546
1286.211507,7476.080014,-6291.750507,1455.581446
1286.211837,6365.771101,-8216.285956,766.095498
1286.212166,4959.379811,-8512.368333,536.266849
1286.212495,3627.009116,-8734.430116,0.000000
1286.212824,3627.009116,-9178.553681,-766.095498
1286.213153,4145.153275,-8882.471304,-459.657299
1286.213482,4811.338623,-8660.409521,-536.266849
1286.213811,6883.915261,-7772.162391,306.438199
